Typical Measured Spectrum of Semrock FF02-409/LP Optical Filter	
For wavelengths between 320 and 1120 nm, values near or below 3e-7 (Optical Density 6.5) are measurement noise limited.
For wavelengths < 320 nm and > 1120 nm, values near or below 3e-6 (Optical Density 5.5) are measurement noise limited. 
Data format:  Wavelength (nm) <tab> Transmission (0 to 1)
265.0	2.4744e-05
265.2	2.5758e-05
265.4	2.6813e-05
265.6	2.7911e-05
265.8	2.9055e-05
266.0	3.0245e-05
266.2	3.1484e-05
266.4	3.2773e-05
266.6	3.4116e-05
266.8	3.5513e-05
267.0	3.6968e-05
267.2	3.8483e-05
267.4	4.0059e-05
267.6	4.17e-05
267.8	4.3408e-05
268.0	4.5186e-05
268.2	4.7037e-05
268.4	4.8964e-05
268.6	5.097e-05
268.8	5.3058e-05
269.0	5.5231e-05
269.2	5.7494e-05
269.4	5.9034e-05
269.6	5.8296e-05
269.8	5.7567e-05
270.0	5.6847e-05
270.2	5.6137e-05
270.4	5.5435e-05
270.6	5.4742e-05
270.8	5.4057e-05
271.0	5.3381e-05
271.2	5.2714e-05
271.4	5.2055e-05
271.6	5.1404e-05
271.8	5.0761e-05
272.0	5.0127e-05
272.2	4.95e-05
272.4	4.8881e-05
272.6	4.827e-05
272.8	4.7666e-05
273.0	4.707e-05
273.2	4.6482e-05
273.4	4.5901e-05
273.6	4.5327e-05
273.8	4.476e-05
274.0	4.42e-05
274.2	4.3544e-05
274.4	4.289e-05
274.6	4.2246e-05
274.8	4.1611e-05
275.0	4.0986e-05
275.2	4.0408e-05
275.4	3.9839e-05
275.6	3.9277e-05
275.8	3.8723e-05
276.0	3.8177e-05
276.2	3.7639e-05
276.4	3.7108e-05
276.6	3.6585e-05
276.8	3.6069e-05
277.0	3.556e-05
277.2	3.5059e-05
277.4	3.4565e-05
277.6	3.4077e-05
277.8	3.3597e-05
278.0	3.285e-05
278.2	3.2064e-05
278.4	3.1298e-05
278.6	3.055e-05
278.8	2.9819e-05
279.0	2.9106e-05
279.2	2.8411e-05
279.4	2.7732e-05
279.6	2.7069e-05
279.8	2.6422e-05
280.0	2.579e-05
280.2	2.5173e-05
280.4	2.4572e-05
280.6	2.3984e-05
280.8	2.3411e-05
281.0	2.2851e-05
281.2	2.2305e-05
281.4	2.1772e-05
281.6	2.1251e-05
281.8	2.0743e-05
282.0	2.0247e-05
282.2	1.9763e-05
282.4	1.9291e-05
282.6	1.923e-05
282.8	1.9569e-05
283.0	1.9914e-05
283.2	2.0265e-05
283.4	2.0623e-05
283.6	2.0986e-05
283.8	2.1356e-05
284.0	2.1733e-05
284.2	2.2116e-05
284.4	2.2506e-05
284.6	2.2903e-05
284.8	2.3307e-05
285.0	2.3718e-05
285.2	2.2991e-05
285.4	2.2286e-05
285.6	2.1602e-05
285.8	2.094e-05
286.0	2.0298e-05
286.2	1.9676e-05
286.4	1.9073e-05
286.6	1.8488e-05
286.8	1.7921e-05
287.0	1.7372e-05
287.2	1.6839e-05
287.4	1.6323e-05
287.6	1.5823e-05
287.8	1.5338e-05
288.0	1.5225e-05
288.2	1.514e-05
288.4	1.5056e-05
288.6	1.4972e-05
288.8	1.4888e-05
289.0	1.4805e-05
289.2	1.4723e-05
289.4	1.4641e-05
289.6	1.4559e-05
289.8	1.4478e-05
290.0	1.4398e-05
290.2	1.4317e-05
290.4	1.4238e-05
290.6	1.4158e-05
290.8	1.4079e-05
291.0	1.4001e-05
291.2	1.3923e-05
291.4	1.3845e-05
291.6	1.3768e-05
291.8	1.3691e-05
292.0	1.3615e-05
292.2	1.3539e-05
292.4	1.3464e-05
292.6	1.2424e-05
292.8	1.0952e-05
293.0	9.6535e-06
293.2	8.5092e-06
293.4	7.5005e-06
293.6	6.6115e-06
293.8	5.8278e-06
294.0	5.137e-06
294.2	4.5281e-06
294.4	3.9913e-06
294.6	3.5182e-06
294.8	3.1012e-06
295.0	2.7336e-06
295.2	3.1351e-06
295.4	3.5957e-06
295.6	4.1239e-06
295.8	4.2629e-06
296.0	4.3071e-06
296.2	4.3518e-06
296.4	4.397e-06
296.6	4.4427e-06
296.8	4.4888e-06
297.0	4.5354e-06
297.2	4.5825e-06
297.4	4.6301e-06
297.6	4.6781e-06
297.8	4.7267e-06
298.0	4.7758e-06
298.2	4.8254e-06
298.4	4.8755e-06
298.6	4.9261e-06
298.8	4.9772e-06
299.0	5.0289e-06
299.2	5.0811e-06
299.4	5.1339e-06
299.6	5.1872e-06
299.8	5.241e-06
300.0	5.2955e-06
300.2	5.3504e-06
300.4	5.4587e-06
300.6	5.6203e-06
300.8	5.7867e-06
301.0	5.9581e-06
301.2	6.1345e-06
301.4	6.3161e-06
301.6	6.5031e-06
301.8	6.6957e-06
302.0	6.8939e-06
302.2	7.098e-06
302.4	7.3082e-06
302.6	7.5246e-06
302.8	7.7473e-06
303.0	7.9767e-06
303.2	8.2129e-06
303.4	8.4561e-06
303.6	8.7064e-06
303.8	8.9642e-06
304.0	9.2296e-06
304.2	9.5029e-06
304.4	9.7842e-06
304.6	1.0074e-05
304.8	1.0372e-05
305.0	1.0689e-05
305.2	1.1099e-05
305.4	1.1524e-05
305.6	1.1965e-05
305.8	1.2423e-05
306.0	1.2899e-05
306.2	1.3393e-05
306.4	1.3906e-05
306.6	1.4438e-05
306.8	1.4991e-05
307.0	1.5378e-05
307.2	1.5129e-05
307.4	1.4884e-05
307.6	1.4644e-05
307.8	1.4407e-05
308.0	1.4174e-05
308.2	1.3945e-05
308.4	1.3719e-05
308.6	1.3497e-05
308.8	1.3279e-05
309.0	1.3064e-05
309.2	1.2853e-05
309.4	1.2645e-05
309.6	1.244e-05
309.8	1.2239e-05
310.0	1.2041e-05
310.2	1.1847e-05
310.4	1.1655e-05
310.6	1.1466e-05
310.8	1.1281e-05
311.0	1.1099e-05
311.2	1.0919e-05
311.4	1.0742e-05
311.6	1.0569e-05
311.8	1.0212e-05
312.0	9.8496e-06
312.2	9.4997e-06
312.4	9.1622e-06
312.6	8.8366e-06
312.8	8.5227e-06
313.0	8.2199e-06
313.2	7.9278e-06
313.4	7.6462e-06
313.6	7.3745e-06
313.8	7.1125e-06
314.0	6.8598e-06
314.2	6.6161e-06
314.4	6.381e-06
314.6	6.1543e-06
314.8	5.9356e-06
315.0	5.7247e-06
315.2	5.5214e-06
315.4	5.3252e-06
315.6	5.136e-06
315.8	4.9535e-06
316.0	4.7775e-06
316.2	4.6078e-06
316.4	4.5318e-06
316.6	4.5155e-06
316.8	4.4993e-06
317.0	4.4832e-06
317.2	4.4671e-06
317.4	4.4511e-06
317.6	4.4351e-06
317.8	4.4192e-06
318.0	4.4034e-06
318.2	4.3876e-06
318.4	4.3719e-06
318.6	4.3562e-06
318.8	4.3406e-06
319.0	4.325e-06
319.2	4.3095e-06
319.4	4.294e-06
319.6	4.2786e-06
319.8	4.2633e-06
320.0	4.248e-06
320.2	4.2327e-06
320.4	4.2176e-06
320.6	4.2024e-06
320.8	4.1874e-06
321.0	4.1809e-06
321.2	4.1934e-06
321.4	4.206e-06
321.6	4.2187e-06
321.8	4.2313e-06
322.0	4.244e-06
322.2	4.2568e-06
322.4	4.2696e-06
322.6	4.2824e-06
322.8	4.2952e-06
323.0	4.3081e-06
323.2	4.3211e-06
323.4	4.334e-06
323.6	4.3471e-06
323.8	4.3601e-06
324.0	4.3732e-06
324.2	4.3863e-06
324.4	4.3995e-06
324.6	4.4127e-06
324.8	4.426e-06
325.0	4.4393e-06
325.2	4.4526e-06
325.4	4.466e-06
325.6	4.4757e-06
325.8	4.3676e-06
326.0	4.2621e-06
326.2	4.1591e-06
326.4	4.0586e-06
326.6	3.9606e-06
326.8	3.8649e-06
327.0	3.7715e-06
327.2	3.6804e-06
327.4	3.5915e-06
327.6	3.5048e-06
327.8	3.4201e-06
328.0	3.3375e-06
328.2	3.2569e-06
328.4	3.1782e-06
328.6	3.1014e-06
328.8	3.0265e-06
329.0	2.9534e-06
329.2	2.882e-06
329.4	2.8124e-06
329.6	2.7445e-06
329.8	2.6782e-06
330.0	2.6135e-06
330.2	2.5504e-06
330.4	2.5733e-06
330.6	2.6241e-06
330.8	2.6758e-06
331.0	2.7286e-06
331.2	2.7824e-06
331.4	2.8373e-06
331.6	2.8932e-06
331.8	2.9503e-06
332.0	3.0085e-06
332.2	3.0678e-06
332.4	3.1283e-06
332.6	3.19e-06
332.8	3.2529e-06
333.0	3.317e-06
333.2	3.3824e-06
333.4	3.4491e-06
333.6	3.5172e-06
333.8	3.5865e-06
334.0	3.6572e-06
334.2	3.7294e-06
334.4	3.8029e-06
334.6	3.8779e-06
334.8	3.9544e-06
335.0	4.0263e-06
335.2	4.0817e-06
335.4	4.1378e-06
335.6	4.1947e-06
335.8	4.2524e-06
336.0	4.3109e-06
336.2	4.3701e-06
336.4	4.4302e-06
336.6	4.4912e-06
336.8	4.5529e-06
337.0	3.9992e-06
337.2	2.4299e-06
337.4	1.4764e-06
337.6	8.9703e-07
337.8	5.4503e-07
338.0	3.3115e-07
338.2	2.0121e-07
338.4	1.2225e-07
338.6	1.0758e-07
338.8	1.2312e-07
339.0	1.409e-07
339.2	1.6125e-07
339.4	1.8454e-07
339.6	2.1119e-07
339.8	2.4169e-07
340.0	2.766e-07
340.2	3.1655e-07
340.4	3.6226e-07
340.6	4.1458e-07
340.8	4.7446e-07
341.0	5.4299e-07
341.2	6.2141e-07
341.4	7.1116e-07
341.6	8.1387e-07
341.8	9.3142e-07
342.0	1.0659e-06
342.2	1.0619e-06
342.4	1.0207e-06
342.6	9.8105e-07
342.8	9.4298e-07
343.0	9.0638e-07
343.2	8.712e-07
343.4	8.3738e-07
343.6	8.0488e-07
343.8	7.7364e-07
344.0	7.4361e-07
344.2	7.1475e-07
344.4	6.8701e-07
344.6	6.6034e-07
344.8	6.3471e-07
345.0	6.1008e-07
345.2	5.864e-07
345.4	5.6364e-07
345.6	5.4176e-07
345.8	5.2073e-07
346.0	5.0052e-07
346.2	4.811e-07
346.4	4.6242e-07
346.6	4.4447e-07
346.8	4.2722e-07
347.0	4.1064e-07
347.2	3.7268e-07
347.4	3.3384e-07
347.6	2.9906e-07
347.8	2.6789e-07
348.0	2.3998e-07
348.2	2.1497e-07
348.4	1.9257e-07
348.6	1.7251e-07
348.8	1.5453e-07
349.0	1.3843e-07
349.2	1.24e-07
349.4	1.1108e-07
349.6	9.9508e-08
349.8	8.9139e-08
350.0	7.9851e-08
350.2	7.153e-08
350.4	6.4077e-08
350.6	5.74e-08
350.8	5.1419e-08
351.0	4.6061e-08
351.2	4.1261e-08
351.4	3.6962e-08
351.6	3.311e-08
351.8	2.966e-08
352.0	2.657e-08
352.2	2.5993e-08
352.4	2.5874e-08
352.6	2.5757e-08
352.8	2.564e-08
353.0	2.5523e-08
353.2	2.5407e-08
353.4	2.5292e-08
353.6	2.5177e-08
353.8	2.5063e-08
354.0	2.4949e-08
354.2	2.4836e-08
354.4	2.4723e-08
354.6	2.461e-08
354.8	2.4499e-08
355.0	2.4387e-08
355.2	2.4276e-08
355.4	2.4166e-08
355.6	2.4056e-08
355.8	2.3947e-08
356.0	2.3838e-08
356.2	2.373e-08
356.4	2.3622e-08
356.6	2.3515e-08
356.8	2.3408e-08
357.0	2.3302e-08
357.2	2.5987e-08
357.4	2.9639e-08
357.6	3.3804e-08
357.8	3.8555e-08
358.0	4.3973e-08
358.2	5.0153e-08
358.4	5.7202e-08
358.6	6.5241e-08
358.8	7.441e-08
359.0	8.4868e-08
359.2	9.6795e-08
359.4	1.104e-07
359.6	1.2591e-07
359.8	1.4361e-07
360.0	1.6379e-07
360.2	1.8681e-07
360.4	2.1307e-07
360.6	2.4301e-07
360.8	2.7717e-07
361.0	3.1612e-07
361.2	3.6055e-07
361.4	4.1122e-07
361.6	4.6901e-07
361.8	5.3492e-07
362.0	6.101e-07
362.2	6.0025e-07
362.4	5.7357e-07
362.6	5.4807e-07
362.8	5.237e-07
363.0	5.0042e-07
363.2	4.7817e-07
363.4	4.5691e-07
363.6	4.366e-07
363.8	4.1719e-07
364.0	3.9864e-07
364.2	3.8091e-07
364.4	3.6398e-07
364.6	3.478e-07
364.8	3.3233e-07
365.0	3.1756e-07
365.2	3.0344e-07
365.4	2.8995e-07
365.6	2.7706e-07
365.8	2.6474e-07
366.0	2.5297e-07
366.2	2.4173e-07
366.4	2.3098e-07
366.6	2.2071e-07
366.8	2.109e-07
367.0	2.0152e-07
367.2	2.0806e-07
367.4	2.1812e-07
367.6	2.2866e-07
367.8	2.3972e-07
368.0	2.5131e-07
368.2	2.6346e-07
368.4	2.762e-07
368.6	2.8955e-07
368.8	3.0356e-07
369.0	3.1823e-07
369.2	3.3362e-07
369.4	3.4975e-07
369.6	3.6666e-07
369.8	3.8439e-07
370.0	4.0298e-07
370.2	4.2246e-07
370.4	4.4289e-07
370.6	4.643e-07
370.8	4.8675e-07
371.0	5.1028e-07
371.2	5.3496e-07
371.4	5.6082e-07
371.6	5.8794e-07
371.8	6.1637e-07
372.0	6.4617e-07
372.2	6.6454e-07
372.4	6.8084e-07
372.6	6.9754e-07
372.8	7.1465e-07
373.0	7.3218e-07
373.2	7.5014e-07
373.4	7.6855e-07
373.6	7.874e-07
373.8	8.0671e-07
374.0	8.265e-07
374.2	8.4678e-07
374.4	8.6755e-07
374.6	8.8883e-07
374.8	9.1064e-07
375.0	9.3298e-07
375.2	9.5587e-07
375.4	9.7931e-07
375.6	1.0033e-06
375.8	1.028e-06
376.0	1.0532e-06
376.2	1.079e-06
376.4	1.1055e-06
376.6	1.1326e-06
376.8	1.1604e-06
377.0	1.1888e-06
377.2	1.2165e-06
377.4	1.2444e-06
377.6	1.273e-06
377.8	1.3023e-06
378.0	1.3322e-06
378.2	1.3628e-06
378.4	1.3942e-06
378.6	1.4262e-06
378.8	1.459e-06
379.0	1.4925e-06
379.2	1.5268e-06
379.4	1.5619e-06
379.6	1.5978e-06
379.8	1.6345e-06
380.0	1.6721e-06
380.2	1.7105e-06
380.4	1.7498e-06
380.6	1.79e-06
380.8	1.8311e-06
381.0	1.8732e-06
381.2	1.9163e-06
381.4	1.9603e-06
381.6	2.0053e-06
381.8	2.0514e-06
382.0	2.0986e-06
382.2	2.1468e-06
382.4	2.1961e-06
382.6	2.2466e-06
382.8	2.2858e-06
383.0	2.2673e-06
383.2	2.2488e-06
383.4	2.2305e-06
383.6	2.2124e-06
383.8	2.1944e-06
384.0	2.1765e-06
384.2	2.1588e-06
384.4	2.1413e-06
384.6	2.1238e-06
384.8	2.1066e-06
385.0	2.0894e-06
385.2	2.0724e-06
385.4	2.0556e-06
385.6	2.0388e-06
385.8	2.0223e-06
386.0	2.0058e-06
386.2	1.9895e-06
386.4	1.9949e-06
386.6	2.0288e-06
386.8	2.0632e-06
387.0	2.0982e-06
387.2	2.1338e-06
387.4	2.1701e-06
387.6	2.2069e-06
387.8	2.2444e-06
388.0	2.2825e-06
388.2	2.3212e-06
388.4	2.3607e-06
388.6	2.4007e-06
388.8	2.4415e-06
389.0	2.4829e-06
389.2	2.5251e-06
389.4	2.568e-06
389.6	2.6116e-06
389.8	2.6559e-06
390.0	2.701e-06
390.2	2.7468e-06
390.4	2.7935e-06
390.6	2.8515e-06
390.8	3.0847e-06
391.0	3.337e-06
391.2	3.6099e-06
391.4	3.9051e-06
391.6	4.2245e-06
391.8	4.57e-06
392.0	4.9438e-06
392.2	4.7712e-06
392.4	4.6045e-06
392.6	4.4437e-06
392.8	4.2885e-06
393.0	4.1387e-06
393.2	3.9942e-06
393.4	3.8547e-06
393.6	3.7201e-06
393.8	3.5902e-06
394.0	3.4648e-06
394.2	3.3438e-06
394.4	3.227e-06
394.6	2.8732e-06
394.8	2.4957e-06
395.0	2.1679e-06
395.2	1.883e-06
395.4	1.6356e-06
395.6	1.4207e-06
395.8	1.2341e-06
396.0	1.0719e-06
396.2	9.3111e-07
396.4	8.0878e-07
396.6	7.0252e-07
396.8	6.1022e-07
397.0	5.3005e-07
397.2	3.6776e-07
397.4	2.1152e-07
397.6	1.2233e-07
397.8	1.2145e-07
398.0	1.2058e-07
398.2	1.8948e-07
398.4	4.7701e-07
398.6	5.156e-07
398.8	5.5731e-07
399.0	4.1934e-07
399.2	2.1965e-07
399.4	1.1505e-07
399.6	1.1131e-07
399.8	1.1006e-07
400.0	1.0879e-07
400.2	1.0752e-07
400.4	1.8255e-07
400.6	3.1249e-07
400.8	2.6847e-07
401.0	1.0461e-07
401.2	1.5989e-07
401.4	2.4436e-07
401.6	2.441e-07
401.8	1.5663e-07
402.0	1.005e-07
402.2	2.0423e-07
402.4	2.6762e-07
402.6	2.2574e-07
402.8	1.9042e-07
403.0	1.4363e-07
403.2	1.0821e-07
403.4	9.2543e-08
403.6	9.1828e-08
403.8	9.0991e-08
404.0	9.0162e-08
404.2	1.3366e-07
404.4	3.0135e-07
404.6	6.7941e-07
404.8	1.7322e-07
405.0	1.3904e-07
405.2	3.4202e-07
405.4	8.413e-07
405.6	5.216e-07
405.8	3.2116e-07
406.0	2.1624e-07
406.2	1.6175e-07
406.4	1.2191e-07
406.6	9.1878e-08
406.8	7.9252e-08
407.0	7.8672e-08
407.2	7.8095e-08
407.4	1.2302e-07
407.6	2.045e-07
407.8	3.5117e-07
408.0	6.0303e-07
408.2	5.0493e-07
408.4	4.1664e-07
408.6	3.9556e-07
408.8	4.4596e-07
409.0	5.4079e-07
409.2	6.5579e-07
409.4	8.875e-07
409.6	1.356e-06
409.8	2.0718e-06
410.0	3.2435e-06
410.2	5.1011e-06
410.4	8.0468e-06
410.6	1.2694e-05
410.8	1.9538e-05
411.0	3.0049e-05
411.2	5.0505e-05
411.4	9.4686e-05
411.6	1.6044e-04
411.8	2.7185e-04
412.0	4.7931e-04
412.2	8.7867e-04
412.4	0.00161
412.6	0.00306
412.8	0.00571
413.0	0.0113
413.2	0.02391
413.4	0.05338
413.6	0.12326
413.8	0.27656
414.0	0.34605
414.2	0.60971
414.4	0.82348
414.6	0.91885
414.8	0.93816
415.0	0.94065
415.2	0.94493
415.4	0.94959
415.6	0.95487
415.8	0.95644
416.0	0.95696
416.2	0.95648
416.4	0.95671
416.6	0.95902
416.8	0.95938
417.0	0.96139
417.2	0.96297
417.4	0.96312
417.6	0.96398
417.8	0.96249
418.0	0.96246
418.2	0.96
418.4	0.959
418.6	0.95953
418.8	0.95895
419.0	0.96063
419.2	0.96027
419.4	0.96275
419.6	0.96368
419.8	0.96476
420.0	0.96509
420.2	0.96601
420.4	0.9665
420.6	0.96681
420.8	0.96342
421.0	0.96223
421.2	0.96116
421.4	0.96098
421.6	0.96008
421.8	0.95837
422.0	0.95824
422.2	0.95906
422.4	0.95949
422.6	0.95974
422.8	0.96228
423.0	0.96282
423.2	0.96307
423.4	0.9646
423.6	0.96464
423.8	0.965
424.0	0.96481
424.2	0.96551
424.4	0.96484
424.6	0.96293
424.8	0.96352
425.0	0.96119
425.2	0.96126
425.4	0.95964
425.6	0.95956
425.8	0.95936
426.0	0.95823
426.2	0.95923
426.4	0.95898
426.6	0.95932
426.8	0.96027
427.0	0.96262
427.2	0.96518
427.4	0.96491
427.6	0.96404
427.8	0.96481
428.0	0.96548
428.2	0.96394
428.4	0.96373
428.6	0.96356
428.8	0.96338
429.0	0.96158
429.2	0.96102
429.4	0.96017
429.6	0.95912
429.8	0.95883
430.0	0.95849
430.2	0.95791
430.4	0.95746
430.6	0.95772
430.8	0.95735
431.0	0.95768
431.2	0.95865
431.4	0.95853
431.6	0.9595
431.8	0.95974
432.0	0.96065
432.2	0.96122
432.4	0.96144
432.6	0.96163
432.8	0.96208
433.0	0.96221
433.2	0.96298
433.4	0.96186
433.6	0.96072
433.8	0.9606
434.0	0.95991
434.2	0.96026
434.4	0.95911
434.6	0.958
434.8	0.95831
435.0	0.95731
435.2	0.95643
435.4	0.95606
435.6	0.95644
435.8	0.95601
436.0	0.95644
436.2	0.95661
436.4	0.95637
436.6	0.95717
436.8	0.95657
437.0	0.95767
437.2	0.9577
437.4	0.95903
437.6	0.95947
437.8	0.95956
438.0	0.96084
438.2	0.96101
438.4	0.96071
438.6	0.96131
438.8	0.96242
439.0	0.96137
439.2	0.96115
439.4	0.9614
439.6	0.95994
439.8	0.95961
440.0	0.95898
440.2	0.95853
440.4	0.95719
440.6	0.9573
440.8	0.95633
441.0	0.95559
441.2	0.95479
441.4	0.9543
441.6	0.95401
441.8	0.95372
442.0	0.95456
442.2	0.95336
442.4	0.9536
442.6	0.95446
442.8	0.95572
443.0	0.95611
443.2	0.95696
443.4	0.95697
443.6	0.95821
443.8	0.95841
444.0	0.95972
444.2	0.96007
444.4	0.96079
444.6	0.96245
444.8	0.96172
445.0	0.96284
445.2	0.96273
445.4	0.96292
445.6	0.96327
445.8	0.96315
446.0	0.96232
446.2	0.96246
446.4	0.96196
446.6	0.96188
446.8	0.96022
447.0	0.95987
447.2	0.95929
447.4	0.95824
447.6	0.95771
447.8	0.95728
448.0	0.95589
448.2	0.95556
448.4	0.955
448.6	0.95401
448.8	0.95434
449.0	0.95333
449.2	0.95386
449.4	0.95374
449.6	0.95424
449.8	0.95477
450.0	0.95504
450.2	0.95576
450.4	0.9568
450.6	0.95657
450.8	0.95841
451.0	0.9593
451.2	0.96038
451.4	0.96112
451.6	0.96216
451.8	0.9631
452.0	0.96393
452.2	0.96419
452.4	0.96507
452.6	0.96484
452.8	0.96583
453.0	0.96517
453.2	0.96514
453.4	0.96527
453.6	0.96505
453.8	0.96434
454.0	0.96403
454.2	0.96408
454.4	0.9631
454.6	0.96315
454.8	0.96211
455.0	0.96203
455.2	0.96158
455.4	0.96123
455.6	0.96021
455.8	0.96033
456.0	0.95894
456.2	0.95844
456.4	0.95832
456.6	0.9576
456.8	0.95762
457.0	0.95762
457.2	0.95788
457.4	0.9574
457.6	0.95751
457.8	0.9582
458.0	0.95871
458.2	0.95963
458.4	0.96016
458.6	0.96089
458.8	0.96268
459.0	0.96359
459.2	0.9651
459.4	0.96598
459.6	0.96689
459.8	0.96747
460.0	0.96755
460.2	0.96896
460.4	0.96972
460.6	0.96968
460.8	0.97013
461.0	0.96932
461.2	0.97016
461.4	0.97016
461.6	0.96914
461.8	0.96958
462.0	0.96891
462.2	0.96822
462.4	0.96871
462.6	0.9677
462.8	0.96722
463.0	0.96685
463.2	0.9668
463.4	0.96577
463.6	0.96497
463.8	0.96461
464.0	0.96395
464.2	0.96381
464.4	0.96247
464.6	0.9623
464.8	0.96162
465.0	0.96108
465.2	0.9606
465.4	0.96002
465.6	0.96016
465.8	0.96066
466.0	0.96096
466.2	0.96078
466.4	0.96173
466.6	0.96209
466.8	0.96312
467.0	0.96411
467.2	0.96474
467.4	0.96605
467.6	0.9672
467.8	0.96819
468.0	0.96877
468.2	0.96929
468.4	0.96997
468.6	0.97067
468.8	0.97174
469.0	0.97243
469.2	0.97385
469.4	0.97432
469.6	0.97494
469.8	0.97476
470.0	0.97558
470.2	0.97622
470.4	0.97601
470.6	0.97681
470.8	0.97695
471.0	0.97714
471.2	0.97651
471.4	0.97655
471.6	0.97688
471.8	0.97602
472.0	0.97539
472.2	0.97434
472.4	0.97386
472.6	0.97353
472.8	0.97367
473.0	0.97288
473.2	0.97172
473.4	0.97202
473.6	0.97046
473.8	0.97049
474.0	0.97016
474.2	0.97004
474.4	0.96874
474.6	0.96889
474.8	0.96886
475.0	0.96876
475.2	0.96885
475.4	0.9683
475.6	0.96874
475.8	0.96911
476.0	0.96955
476.2	0.96953
476.4	0.97011
476.6	0.9708
476.8	0.97147
477.0	0.972
477.2	0.97312
477.4	0.97385
477.6	0.97496
477.8	0.97522
478.0	0.97638
478.2	0.97722
478.4	0.9785
478.6	0.97876
478.8	0.98
479.0	0.98031
479.2	0.98172
479.4	0.982
479.6	0.9822
479.8	0.98253
480.0	0.98324
480.2	0.98366
480.4	0.98371
480.6	0.9837
480.8	0.98409
481.0	0.98406
481.2	0.9837
481.4	0.9837
481.6	0.98249
481.8	0.98221
482.0	0.98233
482.2	0.98143
482.4	0.98165
482.6	0.98068
482.8	0.98046
483.0	0.97941
483.2	0.97913
483.4	0.97801
483.6	0.97766
483.8	0.97766
484.0	0.97644
484.2	0.97639
484.4	0.97618
484.6	0.97568
484.8	0.97573
485.0	0.9751
485.2	0.97542
485.4	0.97583
485.6	0.97528
485.8	0.97525
486.0	0.97533
486.2	0.97574
486.4	0.97653
486.6	0.97638
486.8	0.97742
487.0	0.97733
487.2	0.97827
487.4	0.9791
487.6	0.97959
487.8	0.98074
488.0	0.98105
488.2	0.98165
488.4	0.98251
488.6	0.98358
488.8	0.98457
489.0	0.98517
489.2	0.98582
489.4	0.98651
489.6	0.9873
489.8	0.98739
490.0	0.98823
490.2	0.98875
490.4	0.98913
490.6	0.98944
490.8	0.98962
491.0	0.98955
491.2	0.98971
491.4	0.98987
491.6	0.98973
491.8	0.98965
492.0	0.98945
492.2	0.98939
492.4	0.98944
492.6	0.9885
492.8	0.98798
493.0	0.98819
493.2	0.98663
493.4	0.98692
493.6	0.98615
493.8	0.98573
494.0	0.98576
494.2	0.98449
494.4	0.98378
494.6	0.98333
494.8	0.98306
495.0	0.98278
495.2	0.98235
495.4	0.98194
495.6	0.98176
495.8	0.98119
496.0	0.98123
496.2	0.98123
496.4	0.98126
496.6	0.98097
496.8	0.98127
497.0	0.98165
497.2	0.98221
497.4	0.98209
497.6	0.98279
497.8	0.98297
498.0	0.98315
498.2	0.98399
498.4	0.98436
498.6	0.98541
498.8	0.98586
499.0	0.98648
499.2	0.98742
499.4	0.98772
499.6	0.98812
499.8	0.98889
500.0	0.98849
500.2	0.98858
500.4	0.98828
500.6	0.98937
500.8	0.99
501.0	0.9901
501.2	0.99164
501.4	0.99086
501.6	0.99183
501.8	0.99138
502.0	0.99238
502.2	0.99286
502.4	0.99269
502.6	0.99306
502.8	0.99241
503.0	0.99262
503.2	0.99234
503.4	0.99339
503.6	0.99207
503.8	0.99214
504.0	0.99141
504.2	0.99148
504.4	0.99132
504.6	0.99015
504.8	0.98957
505.0	0.98919
505.2	0.98828
505.4	0.98765
505.6	0.98605
505.8	0.98577
506.0	0.98528
506.2	0.98426
506.4	0.98417
506.6	0.98298
506.8	0.98249
507.0	0.98202
507.2	0.98126
507.4	0.98098
507.6	0.98059
507.8	0.98068
508.0	0.98032
508.2	0.98006
508.4	0.98086
508.6	0.98004
508.8	0.98094
509.0	0.98096
509.2	0.98017
509.4	0.98123
509.6	0.98121
509.8	0.98237
510.0	0.9815
510.2	0.98238
510.4	0.98264
510.6	0.98444
510.8	0.9827
511.0	0.9839
511.2	0.98523
511.4	0.98509
511.6	0.98602
511.8	0.98644
512.0	0.98739
512.2	0.98811
512.4	0.9886
512.6	0.98971
512.8	0.99034
513.0	0.99137
513.2	0.99163
513.4	0.99221
513.6	0.99224
513.8	0.9941
514.0	0.99366
514.2	0.99449
514.4	0.99496
514.6	0.9945
514.8	0.99477
515.0	0.99537
515.2	0.99472
515.4	0.99503
515.6	0.99452
515.8	0.99429
516.0	0.99417
516.2	0.99412
516.4	0.99353
516.6	0.99277
516.8	0.99165
517.0	0.99252
517.2	0.99111
517.4	0.9913
517.6	0.99059
517.8	0.98984
518.0	0.98913
518.2	0.98935
518.4	0.98827
518.6	0.98776
518.8	0.98798
519.0	0.98707
519.2	0.98695
519.4	0.98578
519.6	0.98502
519.8	0.98526
520.0	0.98432
520.2	0.98362
520.4	0.98319
520.6	0.98221
520.8	0.98231
521.0	0.98218
521.2	0.98189
521.4	0.98141
521.6	0.98108
521.8	0.98097
522.0	0.98157
522.2	0.98079
522.4	0.98184
522.6	0.98182
522.8	0.98187
523.0	0.98329
523.2	0.98262
523.4	0.98285
523.6	0.98408
523.8	0.98384
524.0	0.9842
524.2	0.98484
524.4	0.9866
524.6	0.98612
524.8	0.98688
525.0	0.98784
525.2	0.98855
525.4	0.98956
525.6	0.98907
525.8	0.98993
526.0	0.99058
526.2	0.99135
526.4	0.99211
526.6	0.99186
526.8	0.99245
527.0	0.99287
527.2	0.99282
527.4	0.99369
527.6	0.99424
527.8	0.99365
528.0	0.99479
528.2	0.99484
528.4	0.99501
528.6	0.99499
528.8	0.99483
529.0	0.99513
529.2	0.99417
529.4	0.99493
529.6	0.99459
529.8	0.99441
530.0	0.99446
530.2	0.99354
530.4	0.99284
530.6	0.99304
530.8	0.99235
531.0	0.99179
531.2	0.99112
531.4	0.99047
531.6	0.99019
531.8	0.98939
532.0	0.98931
532.2	0.98779
532.4	0.98718
532.6	0.98707
532.8	0.98672
533.0	0.98629
533.2	0.98574
533.4	0.98512
533.6	0.9847
533.8	0.98442
534.0	0.98485
534.2	0.98393
534.4	0.98363
534.6	0.98272
534.8	0.98304
535.0	0.98225
535.2	0.98235
535.4	0.98223
535.6	0.9814
535.8	0.9821
536.0	0.982
536.2	0.98143
536.4	0.98231
536.6	0.98171
536.8	0.98229
537.0	0.98256
537.2	0.98289
537.4	0.9827
537.6	0.98278
537.8	0.98395
538.0	0.98421
538.2	0.98415
538.4	0.98559
538.6	0.98538
538.8	0.98596
539.0	0.98729
539.2	0.98788
539.4	0.98715
539.6	0.98794
539.8	0.98946
540.0	0.99005
540.2	0.98933
540.4	0.99059
540.6	0.99106
540.8	0.99149
541.0	0.99156
541.2	0.99167
541.4	0.99255
541.6	0.99239
541.8	0.99348
542.0	0.99297
542.2	0.99286
542.4	0.99338
542.6	0.99338
542.8	0.9939
543.0	0.99317
543.2	0.99314
543.4	0.99308
543.6	0.99313
543.8	0.99266
544.0	0.99263
544.2	0.99262
544.4	0.99274
544.6	0.99206
544.8	0.99196
545.0	0.99182
545.2	0.99137
545.4	0.99095
545.6	0.99075
545.8	0.99022
546.0	0.98955
546.2	0.98906
546.4	0.98877
546.6	0.98824
546.8	0.98779
547.0	0.98766
547.2	0.98675
547.4	0.98627
547.6	0.98546
547.8	0.98513
548.0	0.98466
548.2	0.98444
548.4	0.98407
548.6	0.98348
548.8	0.98303
549.0	0.98287
549.2	0.98274
549.4	0.98199
549.6	0.98134
549.8	0.98121
550.0	0.98123
550.2	0.98066
550.4	0.98076
550.6	0.98072
550.8	0.98069
551.0	0.98032
551.2	0.9806
551.4	0.98079
551.6	0.98029
551.8	0.98059
552.0	0.98095
552.2	0.98066
552.4	0.98075
552.6	0.98145
552.8	0.98159
553.0	0.98165
553.2	0.98216
553.4	0.98254
553.6	0.98285
553.8	0.98314
554.0	0.98395
554.2	0.98393
554.4	0.98436
554.6	0.98473
554.8	0.98553
555.0	0.98568
555.2	0.98587
555.4	0.98639
555.6	0.98718
555.8	0.98717
556.0	0.98778
556.2	0.98806
556.4	0.98837
556.6	0.98872
556.8	0.98889
557.0	0.98976
557.2	0.98953
557.4	0.98972
557.6	0.99029
557.8	0.9905
558.0	0.99046
558.2	0.99061
558.4	0.99064
558.6	0.99127
558.8	0.99088
559.0	0.99061
559.2	0.99101
559.4	0.99082
559.6	0.99032
559.8	0.99037
560.0	0.99016
560.2	0.99006
560.4	0.99001
560.6	0.98935
560.8	0.98956
561.0	0.98887
561.2	0.9884
561.4	0.98834
561.6	0.98807
561.8	0.98741
562.0	0.98699
562.2	0.98706
562.4	0.98665
562.6	0.98566
562.8	0.98536
563.0	0.98485
563.2	0.98463
563.4	0.98395
563.6	0.98394
563.8	0.98357
564.0	0.98293
564.2	0.98244
564.4	0.98208
564.6	0.9823
564.8	0.98141
565.0	0.98098
565.2	0.98096
565.4	0.98066
565.6	0.98013
565.8	0.97985
566.0	0.97998
566.2	0.97982
566.4	0.9791
566.6	0.97924
566.8	0.97975
567.0	0.97935
567.2	0.9789
567.4	0.97912
567.6	0.97922
567.8	0.9792
568.0	0.97895
568.2	0.97907
568.4	0.97953
568.6	0.97916
568.8	0.97957
569.0	0.97996
569.2	0.98042
569.4	0.98023
569.6	0.98031
569.8	0.98096
570.0	0.98089
570.2	0.98115
570.4	0.98173
570.6	0.98199
570.8	0.98264
571.0	0.98243
571.2	0.98294
571.4	0.98364
571.6	0.9841
571.8	0.98415
572.0	0.98452
572.2	0.98515
572.4	0.98549
572.6	0.98554
572.8	0.98576
573.0	0.98638
573.2	0.98664
573.4	0.98711
573.6	0.98723
573.8	0.98752
574.0	0.98759
574.2	0.98782
574.4	0.98792
574.6	0.98828
574.8	0.98844
575.0	0.9884
575.2	0.9882
575.4	0.98898
575.6	0.98898
575.8	0.98859
576.0	0.98836
576.2	0.98856
576.4	0.98884
576.6	0.98835
576.8	0.98836
577.0	0.98832
577.2	0.98824
577.4	0.98821
577.6	0.9875
577.8	0.98747
578.0	0.98746
578.2	0.98727
578.4	0.98683
578.6	0.98681
578.8	0.98645
579.0	0.98625
579.2	0.98575
579.4	0.98537
579.6	0.98545
579.8	0.9849
580.0	0.98423
580.2	0.98432
580.4	0.98357
580.6	0.98363
580.8	0.98305
581.0	0.98277
581.2	0.98285
581.4	0.98193
581.6	0.98185
581.8	0.98149
582.0	0.98128
582.2	0.981
582.4	0.9807
582.6	0.98023
582.8	0.98043
583.0	0.98025
583.2	0.9798
583.4	0.97984
583.6	0.97975
583.8	0.97988
584.0	0.97962
584.2	0.97916
584.4	0.97973
584.6	0.97964
584.8	0.97955
585.0	0.97942
585.2	0.97942
585.4	0.97989
585.6	0.97973
585.8	0.9794
586.0	0.97994
586.2	0.98031
586.4	0.98003
586.6	0.98004
586.8	0.9804
587.0	0.98112
587.2	0.98113
587.4	0.98078
587.6	0.98087
587.8	0.9814
588.0	0.98185
588.2	0.98217
588.4	0.98199
588.6	0.98234
588.8	0.98315
589.0	0.98303
589.2	0.98297
589.4	0.98387
589.6	0.98391
589.8	0.98436
590.0	0.98462
590.2	0.98473
590.4	0.98527
590.6	0.98555
590.8	0.98563
591.0	0.98568
591.2	0.98615
591.4	0.98636
591.6	0.98628
591.8	0.98636
592.0	0.98645
592.2	0.98745
592.4	0.9872
592.6	0.98746
592.8	0.98718
593.0	0.9874
593.2	0.98764
593.4	0.98759
593.6	0.98762
593.8	0.98777
594.0	0.98802
594.2	0.98774
594.4	0.98747
594.6	0.98761
594.8	0.98751
595.0	0.98737
595.2	0.98726
595.4	0.98716
595.6	0.98715
595.8	0.98707
596.0	0.98664
596.2	0.98619
596.4	0.98642
596.6	0.98641
596.8	0.98609
597.0	0.98557
597.2	0.98527
597.4	0.98536
597.6	0.98505
597.8	0.98496
598.0	0.98433
598.2	0.9841
598.4	0.9844
598.6	0.98383
598.8	0.98365
599.0	0.98315
599.2	0.98306
599.4	0.98299
599.6	0.98212
599.8	0.98173
600.0	0.98201
600.2	0.98225
600.4	0.98158
600.6	0.98087
600.8	0.98088
601.0	0.981
601.2	0.98074
601.4	0.98059
601.6	0.98033
601.8	0.98018
602.0	0.9804
602.2	0.98022
602.4	0.98015
602.6	0.98008
602.8	0.98029
603.0	0.98039
603.2	0.98019
603.4	0.9798
603.6	0.98012
603.8	0.98025
604.0	0.98016
604.2	0.97993
604.4	0.97994
604.6	0.98012
604.8	0.98065
605.0	0.98033
605.2	0.98032
605.4	0.98071
605.6	0.9812
605.8	0.98099
606.0	0.98102
606.2	0.98105
606.4	0.98153
606.6	0.98182
606.8	0.9818
607.0	0.9821
607.2	0.98206
607.4	0.98264
607.6	0.98279
607.8	0.98292
608.0	0.98329
608.2	0.98359
608.4	0.98362
608.6	0.98412
608.8	0.98419
609.0	0.98448
609.2	0.98456
609.4	0.9844
609.6	0.98489
609.8	0.98562
610.0	0.98555
610.2	0.98556
610.4	0.98554
610.6	0.98611
610.8	0.98637
611.0	0.98632
611.2	0.98619
611.4	0.98636
611.6	0.98642
611.8	0.98674
612.0	0.98648
612.2	0.98642
612.4	0.98677
612.6	0.98686
612.8	0.98688
613.0	0.98679
613.2	0.98661
613.4	0.98649
613.6	0.98677
613.8	0.98661
614.0	0.98663
614.2	0.98675
614.4	0.98647
614.6	0.98639
614.8	0.98698
615.0	0.98626
615.2	0.98599
615.4	0.9861
615.6	0.98587
615.8	0.98611
616.0	0.98554
616.2	0.98536
616.4	0.98583
616.6	0.98564
616.8	0.98531
617.0	0.985
617.2	0.98463
617.4	0.98481
617.6	0.98466
617.8	0.98481
618.0	0.98395
618.2	0.98408
618.4	0.98442
618.6	0.98432
618.8	0.98352
619.0	0.9835
619.2	0.98351
619.4	0.98303
619.6	0.98301
619.8	0.98289
620.0	0.98263
620.2	0.98282
620.4	0.98243
620.6	0.98238
620.8	0.98235
621.0	0.98209
621.2	0.98205
621.4	0.98241
621.6	0.98215
621.8	0.98202
622.0	0.98155
622.2	0.98175
622.4	0.98201
622.6	0.98206
622.8	0.98185
623.0	0.98185
623.2	0.98194
623.4	0.98236
623.6	0.98227
623.8	0.98187
624.0	0.98209
624.2	0.98221
624.4	0.98283
624.6	0.98268
624.8	0.98214
625.0	0.98255
625.2	0.98283
625.4	0.98322
625.6	0.983
625.8	0.98292
626.0	0.98293
626.2	0.98322
626.4	0.9837
626.6	0.98387
626.8	0.98379
627.0	0.98337
627.2	0.98416
627.4	0.98441
627.6	0.98486
627.8	0.9843
628.0	0.98454
628.2	0.98484
628.4	0.98516
628.6	0.98576
628.8	0.98537
629.0	0.9856
629.2	0.98575
629.4	0.98628
629.6	0.98617
629.8	0.98613
630.0	0.98648
630.2	0.98656
630.4	0.9867
630.6	0.98681
630.8	0.98675
631.0	0.98669
631.2	0.98691
631.4	0.98737
631.6	0.98765
631.8	0.98734
632.0	0.98739
632.2	0.98774
632.4	0.98785
632.6	0.98792
632.8	0.98801
633.0	0.98773
633.2	0.98761
633.4	0.988
633.6	0.98789
633.8	0.98811
634.0	0.98795
634.2	0.98779
634.4	0.98785
634.6	0.98805
634.8	0.98832
635.0	0.98807
635.2	0.98796
635.4	0.98776
635.6	0.98809
635.8	0.98786
636.0	0.98748
636.2	0.98746
636.4	0.98735
636.6	0.98758
636.8	0.98747
637.0	0.98743
637.2	0.98705
637.4	0.98685
637.6	0.98717
637.8	0.98715
638.0	0.98713
638.2	0.98683
638.4	0.98639
638.6	0.98628
638.8	0.98623
639.0	0.98624
639.2	0.98636
639.4	0.98625
639.6	0.9857
639.8	0.98606
640.0	0.98588
640.2	0.98595
640.4	0.98545
640.6	0.9855
640.8	0.98532
641.0	0.98555
641.2	0.98562
641.4	0.98512
641.6	0.98477
641.8	0.98479
642.0	0.98514
642.2	0.98505
642.4	0.98464
642.6	0.98469
642.8	0.98445
643.0	0.98476
643.2	0.98444
643.4	0.98456
643.6	0.98432
643.8	0.98424
644.0	0.98433
644.2	0.98454
644.4	0.98456
644.6	0.98442
644.8	0.98434
645.0	0.98427
645.2	0.98461
645.4	0.98477
645.6	0.98467
645.8	0.98453
646.0	0.98454
646.2	0.98456
646.4	0.98488
646.6	0.98505
646.8	0.98475
647.0	0.98486
647.2	0.9849
647.4	0.98523
647.6	0.98581
647.8	0.98575
648.0	0.98549
648.2	0.98532
648.4	0.98547
648.6	0.98591
648.8	0.98609
649.0	0.98602
649.2	0.98569
649.4	0.98632
649.6	0.98631
649.8	0.98648
650.0	0.98664
650.2	0.98625
650.4	0.98658
650.6	0.98637
650.8	0.98657
651.0	0.98709
651.2	0.98708
651.4	0.9869
651.6	0.9868
651.8	0.98751
652.0	0.98718
652.2	0.98789
652.4	0.98725
652.6	0.98747
652.8	0.98767
653.0	0.98773
653.2	0.98799
653.4	0.98811
653.6	0.98771
653.8	0.98752
654.0	0.9878
654.2	0.98774
654.4	0.9882
654.6	0.9881
654.8	0.98785
655.0	0.98826
655.2	0.9884
655.4	0.98851
655.6	0.98868
655.8	0.98863
656.0	0.98816
656.2	0.98835
656.4	0.98852
656.6	0.98843
656.8	0.9883
657.0	0.98839
657.2	0.98831
657.4	0.98833
657.6	0.98858
657.8	0.9886
658.0	0.98851
658.2	0.98794
658.4	0.98788
658.6	0.98786
658.8	0.98835
659.0	0.98814
659.2	0.98811
659.4	0.9878
659.6	0.98792
659.8	0.98778
660.0	0.9879
660.2	0.98807
660.4	0.98737
660.6	0.98706
660.8	0.98756
661.0	0.98756
661.2	0.98744
661.4	0.98722
661.6	0.9872
661.8	0.98678
662.0	0.98684
662.2	0.98709
662.4	0.98693
662.6	0.98677
662.8	0.98682
663.0	0.98643
663.2	0.98651
663.4	0.98665
663.6	0.98689
663.8	0.98701
664.0	0.98674
664.2	0.98635
664.4	0.9865
664.6	0.98642
664.8	0.98694
665.0	0.9862
665.2	0.98634
665.4	0.98657
665.6	0.98618
665.8	0.98653
666.0	0.98636
666.2	0.98629
666.4	0.98623
666.6	0.9862
666.8	0.98636
667.0	0.9862
667.2	0.98627
667.4	0.9864
667.6	0.98614
667.8	0.98593
668.0	0.98598
668.2	0.98628
668.4	0.9866
668.6	0.98635
668.8	0.98617
669.0	0.98619
669.2	0.98663
669.4	0.98641
669.6	0.98632
669.8	0.98641
670.0	0.98621
670.2	0.98632
670.4	0.98652
670.6	0.98681
670.8	0.98695
671.0	0.98683
671.2	0.98663
671.4	0.98699
671.6	0.98677
671.8	0.98718
672.0	0.98747
672.2	0.9875
672.4	0.98721
672.6	0.9874
672.8	0.98744
673.0	0.98831
673.2	0.98742
673.4	0.98812
673.6	0.9887
673.8	0.98754
674.0	0.98887
674.2	0.98826
674.4	0.98853
674.6	0.98935
674.8	0.9886
675.0	0.98821
675.2	0.9875
675.4	0.98866
675.6	0.98831
675.8	0.98873
676.0	0.98872
676.2	0.98873
676.4	0.98869
676.6	0.98825
676.8	0.98925
677.0	0.98885
677.2	0.98865
677.4	0.98907
677.6	0.98879
677.8	0.98969
678.0	0.98849
678.2	0.98836
678.4	0.98896
678.6	0.98889
678.8	0.98893
679.0	0.98918
679.2	0.98899
679.4	0.98848
679.6	0.98935
679.8	0.98849
680.0	0.98855
680.2	0.98967
680.4	0.9884
680.6	0.9888
680.8	0.98934
681.0	0.98932
681.2	0.98777
681.4	0.98841
681.6	0.9881
681.8	0.98946
682.0	0.98891
682.2	0.9885
682.4	0.98895
682.6	0.98833
682.8	0.98785
683.0	0.98812
683.2	0.98858
683.4	0.98852
683.6	0.98822
683.8	0.98814
684.0	0.98828
684.2	0.98819
684.4	0.98819
684.6	0.98756
684.8	0.98766
685.0	0.98742
685.2	0.98815
685.4	0.98752
685.6	0.98777
685.8	0.98747
686.0	0.98772
686.2	0.98684
686.4	0.9875
686.6	0.98787
686.8	0.98703
687.0	0.98801
687.2	0.98723
687.4	0.98805
687.6	0.98692
687.8	0.98728
688.0	0.98729
688.2	0.98685
688.4	0.98625
688.6	0.98689
688.8	0.98703
689.0	0.98759
689.2	0.98719
689.4	0.98734
689.6	0.9863
689.8	0.9859
690.0	0.98673
690.2	0.98698
690.4	0.98739
690.6	0.98708
690.8	0.98655
691.0	0.98652
691.2	0.98683
691.4	0.98701
691.6	0.98627
691.8	0.98684
692.0	0.98661
692.2	0.98655
692.4	0.98643
692.6	0.98714
692.8	0.98723
693.0	0.98663
693.2	0.98563
693.4	0.98637
693.6	0.98729
693.8	0.98639
694.0	0.98652
694.2	0.98566
694.4	0.98685
694.6	0.98722
694.8	0.98663
695.0	0.98705
695.2	0.98693
695.4	0.98667
695.6	0.98637
695.8	0.98714
696.0	0.98707
696.2	0.98756
696.4	0.98695
696.6	0.98719
696.8	0.98783
697.0	0.9868
697.2	0.98755
697.4	0.98704
697.6	0.98731
697.8	0.98732
698.0	0.98784
698.2	0.98778
698.4	0.98735
698.6	0.98709
698.8	0.98806
699.0	0.98793
699.2	0.98834
699.4	0.98729
699.6	0.9878
699.8	0.98749
700.0	0.98827
700.2	0.98799
700.4	0.98791
700.6	0.98725
700.8	0.9883
701.0	0.98739
701.2	0.98822
701.4	0.98808
701.6	0.98803
701.8	0.98824
702.0	0.98785
702.2	0.98825
702.4	0.98823
702.6	0.98854
702.8	0.9876
703.0	0.9883
703.2	0.98838
703.4	0.98825
703.6	0.989
703.8	0.98778
704.0	0.98837
704.2	0.98836
704.4	0.98736
704.6	0.9892
704.8	0.98775
705.0	0.98838
705.2	0.98866
705.4	0.98763
705.6	0.98783
705.8	0.98881
706.0	0.98775
706.2	0.98778
706.4	0.98815
706.6	0.98721
706.8	0.98831
707.0	0.9877
707.2	0.98787
707.4	0.98738
707.6	0.98787
707.8	0.98707
708.0	0.9877
708.2	0.98767
708.4	0.98818
708.6	0.98686
708.8	0.98774
709.0	0.98742
709.2	0.98703
709.4	0.98781
709.6	0.98754
709.8	0.98664
710.0	0.98717
710.2	0.98651
710.4	0.98732
710.6	0.98688
710.8	0.98708
711.0	0.9868
711.2	0.98714
711.4	0.98678
711.6	0.98638
711.8	0.98649
712.0	0.98718
712.2	0.98647
712.4	0.98664
712.6	0.98664
712.8	0.98755
713.0	0.98656
713.2	0.98651
713.4	0.98651
713.6	0.9855
713.8	0.98682
714.0	0.98612
714.2	0.98652
714.4	0.98641
714.6	0.98527
714.8	0.98574
715.0	0.98643
715.2	0.98644
715.4	0.98529
715.6	0.98609
715.8	0.98633
716.0	0.98609
716.2	0.98557
716.4	0.98554
716.6	0.98593
716.8	0.98571
717.0	0.98545
717.2	0.98631
717.4	0.98552
717.6	0.98631
717.8	0.98588
718.0	0.98556
718.2	0.98535
718.4	0.98524
718.6	0.98676
718.8	0.98556
719.0	0.98523
719.2	0.98557
719.4	0.98593
719.6	0.98587
719.8	0.98555
720.0	0.98629
720.2	0.98606
720.4	0.98545
720.6	0.98499
720.8	0.98578
721.0	0.98643
721.2	0.98572
721.4	0.98535
721.6	0.98585
721.8	0.9846
722.0	0.98594
722.2	0.98554
722.4	0.98697
722.6	0.98624
722.8	0.98542
723.0	0.98627
723.2	0.98612
723.4	0.98628
723.6	0.98613
723.8	0.98689
724.0	0.98597
724.2	0.98624
724.4	0.98657
724.6	0.98612
724.8	0.98625
725.0	0.98555
725.2	0.98598
725.4	0.98683
725.6	0.98612
725.8	0.98639
726.0	0.98752
726.2	0.98638
726.4	0.98661
726.6	0.98602
726.8	0.98621
727.0	0.98629
727.2	0.98664
727.4	0.98618
727.6	0.98643
727.8	0.98622
728.0	0.98658
728.2	0.9868
728.4	0.98595
728.6	0.98687
728.8	0.98645
729.0	0.98725
729.2	0.98626
729.4	0.98618
729.6	0.98653
729.8	0.98639
730.0	0.98682
730.2	0.98698
730.4	0.98561
730.6	0.9858
730.8	0.98655
731.0	0.98641
731.2	0.98635
731.4	0.98657
731.6	0.98669
731.8	0.98628
732.0	0.98567
732.2	0.98568
732.4	0.9863
732.6	0.986
732.8	0.98662
733.0	0.98666
733.2	0.9862
733.4	0.98588
733.6	0.9855
733.8	0.98628
734.0	0.9859
734.2	0.98463
734.4	0.98657
734.6	0.98575
734.8	0.98566
735.0	0.98575
735.2	0.98487
735.4	0.98491
735.6	0.98535
735.8	0.98558
736.0	0.98625
736.2	0.98565
736.4	0.98524
736.6	0.98543
736.8	0.98575
737.0	0.98522
737.2	0.98497
737.4	0.98503
737.6	0.98529
737.8	0.98507
738.0	0.98519
738.2	0.9858
738.4	0.98529
738.6	0.98581
738.8	0.98561
739.0	0.98506
739.2	0.98541
739.4	0.98487
739.6	0.98467
739.8	0.98508
740.0	0.98541
740.2	0.9853
740.4	0.98467
740.6	0.98541
740.8	0.98498
741.0	0.98447
741.2	0.98479
741.4	0.98512
741.6	0.98443
741.8	0.98497
742.0	0.98478
742.2	0.98517
742.4	0.98483
742.6	0.98454
742.8	0.98455
743.0	0.98516
743.2	0.98469
743.4	0.98515
743.6	0.98533
743.8	0.98494
744.0	0.98444
744.2	0.98527
744.4	0.98457
744.6	0.98398
744.8	0.98496
745.0	0.98469
745.2	0.98405
745.4	0.98406
745.6	0.98423
745.8	0.98452
746.0	0.98496
746.2	0.98488
746.4	0.98469
746.6	0.98467
746.8	0.98443
747.0	0.98486
747.2	0.9842
747.4	0.98518
747.6	0.98479
747.8	0.98475
748.0	0.9848
748.2	0.98489
748.4	0.98528
748.6	0.98473
748.8	0.9849
749.0	0.98487
749.2	0.98495
749.4	0.98528
749.6	0.98471
749.8	0.98471
750.0	0.98492
750.2	0.98512
750.4	0.9849
750.6	0.98469
750.8	0.98563
751.0	0.98496
751.2	0.98522
751.4	0.98502
751.6	0.98561
751.8	0.98512
752.0	0.9849
752.2	0.98513
752.4	0.98469
752.6	0.98512
752.8	0.98492
753.0	0.98477
753.2	0.98517
753.4	0.98526
753.6	0.98587
753.8	0.98537
754.0	0.98497
754.2	0.98532
754.4	0.98529
754.6	0.98547
754.8	0.98566
755.0	0.985
755.2	0.98577
755.4	0.98505
755.6	0.98539
755.8	0.98512
756.0	0.98499
756.2	0.98541
756.4	0.98564
756.6	0.98507
756.8	0.98497
757.0	0.98604
757.2	0.98524
757.4	0.98486
757.6	0.9852
757.8	0.98512
758.0	0.98595
758.2	0.98529
758.4	0.98528
758.6	0.98483
758.8	0.98592
759.0	0.98576
759.2	0.98524
759.4	0.9855
759.6	0.9854
759.8	0.98508
760.0	0.98591
760.2	0.98566
760.4	0.98504
760.6	0.98524
760.8	0.98509
761.0	0.98491
761.2	0.98515
761.4	0.98495
761.6	0.98429
761.8	0.98472
762.0	0.98512
762.2	0.98511
762.4	0.98489
762.6	0.98493
762.8	0.98515
763.0	0.98421
763.2	0.9851
763.4	0.98432
763.6	0.98494
763.8	0.98445
764.0	0.98438
764.2	0.98537
764.4	0.9839
764.6	0.98543
764.8	0.98442
765.0	0.98453
765.2	0.98401
765.4	0.98465
765.6	0.98439
765.8	0.98411
766.0	0.98422
766.2	0.98401
766.4	0.98344
766.6	0.98432
766.8	0.98407
767.0	0.98385
767.2	0.98485
767.4	0.98367
767.6	0.98377
767.8	0.98354
768.0	0.98384
768.2	0.98385
768.4	0.98378
768.6	0.98374
768.8	0.98378
769.0	0.98336
769.2	0.98353
769.4	0.98351
769.6	0.98319
769.8	0.98367
770.0	0.98361
770.2	0.98347
770.4	0.98319
770.6	0.98277
770.8	0.98322
771.0	0.98328
771.2	0.98336
771.4	0.98363
771.6	0.98251
771.8	0.98342
772.0	0.98381
772.2	0.98315
772.4	0.98284
772.6	0.98294
772.8	0.98341
773.0	0.98301
773.2	0.98298
773.4	0.98303
773.6	0.98305
773.8	0.98265
774.0	0.98312
774.2	0.98256
774.4	0.9825
774.6	0.98299
774.8	0.98283
775.0	0.98298
775.2	0.98325
775.4	0.98261
775.6	0.98244
775.8	0.98316
776.0	0.98242
776.2	0.98286
776.4	0.98327
776.6	0.98381
776.8	0.98276
777.0	0.98302
777.2	0.98254
777.4	0.98297
777.6	0.98292
777.8	0.98297
778.0	0.98309
778.2	0.98282
778.4	0.98308
778.6	0.98258
778.8	0.98348
779.0	0.98308
779.2	0.9829
779.4	0.98324
779.6	0.98311
779.8	0.98294
780.0	0.98304
780.2	0.98295
780.4	0.98323
780.6	0.98304
780.8	0.98367
781.0	0.98369
781.2	0.98268
781.4	0.98318
781.6	0.98367
781.8	0.98312
782.0	0.98351
782.2	0.98316
782.4	0.98301
782.6	0.98371
782.8	0.98365
783.0	0.9839
783.2	0.98414
783.4	0.98384
783.6	0.98303
783.8	0.98355
784.0	0.98372
784.2	0.98398
784.4	0.98384
784.6	0.98366
784.8	0.98335
785.0	0.98402
785.2	0.98355
785.4	0.98368
785.6	0.98354
785.8	0.9836
786.0	0.98482
786.2	0.98373
786.4	0.98377
786.6	0.9833
786.8	0.9842
787.0	0.98386
787.2	0.98414
787.4	0.98333
787.6	0.98397
787.8	0.98377
788.0	0.98389
788.2	0.98388
788.4	0.98474
788.6	0.98364
788.8	0.98391
789.0	0.98444
789.2	0.98403
789.4	0.98359
789.6	0.98415
789.8	0.98397
790.0	0.98408
790.2	0.98381
790.4	0.9837
790.6	0.98376
790.8	0.98415
791.0	0.98381
791.2	0.98349
791.4	0.98353
791.6	0.9841
791.8	0.98381
792.0	0.98346
792.2	0.98334
792.4	0.98364
792.6	0.984
792.8	0.98432
793.0	0.98419
793.2	0.98343
793.4	0.9838
793.6	0.98366
793.8	0.9833
794.0	0.98375
794.2	0.98348
794.4	0.98322
794.6	0.98337
794.8	0.98309
795.0	0.98079
795.2	0.98093
795.4	0.98107
795.6	0.98152
795.8	0.98151
796.0	0.98133
796.2	0.9813
796.4	0.9812
796.6	0.98111
796.8	0.98087
797.0	0.98069
797.2	0.98094
797.4	0.98105
797.6	0.98093
797.8	0.9809
798.0	0.98067
798.2	0.98082
798.4	0.98101
798.6	0.98058
798.8	0.98062
799.0	0.98058
799.2	0.98013
799.4	0.9802
799.6	0.98013
799.8	0.98014
800.0	0.98014
800.2	0.97924
800.4	0.97922
800.6	0.9797
800.8	0.97981
801.0	0.97987
801.2	0.97967
801.4	0.9792
801.6	0.97965
801.8	0.98006
802.0	0.9798
802.2	0.97974
802.4	0.9796
802.6	0.97956
802.8	0.97934
803.0	0.97962
803.2	0.97924
803.4	0.97933
803.6	0.97922
803.8	0.97906
804.0	0.97921
804.2	0.97923
804.4	0.97938
804.6	0.97929
804.8	0.97933
805.0	0.97948
805.2	0.97921
805.4	0.97882
805.6	0.9794
805.8	0.97898
806.0	0.97925
806.2	0.97908
806.4	0.97876
806.6	0.97872
806.8	0.97874
807.0	0.97894
807.2	0.97857
807.4	0.97891
807.6	0.97911
807.8	0.97861
808.0	0.97898
808.2	0.97877
808.4	0.97915
808.6	0.97923
808.8	0.97883
809.0	0.97909
809.2	0.97895
809.4	0.97898
809.6	0.97881
809.8	0.97887
810.0	0.9788
810.2	0.97876
810.4	0.97871
810.6	0.97874
810.8	0.97889
811.0	0.97939
811.2	0.97936
811.4	0.97949
811.6	0.9793
811.8	0.97908
812.0	0.97939
812.2	0.97927
812.4	0.9788
812.6	0.97922
812.8	0.97925
813.0	0.97918
813.2	0.97912
813.4	0.9793
813.6	0.97925
813.8	0.97906
814.0	0.97963
814.2	0.9796
814.4	0.97927
814.6	0.97986
814.8	0.97969
815.0	0.97962
815.2	0.97969
815.4	0.97969
815.6	0.97984
815.8	0.97973
816.0	0.97992
816.2	0.98005
816.4	0.98007
816.6	0.9801
816.8	0.98
817.0	0.98003
817.2	0.98017
817.4	0.98038
817.6	0.98011
817.8	0.98008
818.0	0.98034
818.2	0.98001
818.4	0.98022
818.6	0.98039
818.8	0.98046
819.0	0.9799
819.2	0.98051
819.4	0.98054
819.6	0.98041
819.8	0.98067
820.0	0.98086
820.2	0.98048
820.4	0.98076
820.6	0.98056
820.8	0.98052
821.0	0.98066
821.2	0.98095
821.4	0.98076
821.6	0.98084
821.8	0.98073
822.0	0.98076
822.2	0.981
822.4	0.98089
822.6	0.98091
822.8	0.98083
823.0	0.98108
823.2	0.98088
823.4	0.98112
823.6	0.98094
823.8	0.98104
824.0	0.98084
824.2	0.98087
824.4	0.98092
824.6	0.98109
824.8	0.98075
825.0	0.9812
825.2	0.98102
825.4	0.98092
825.6	0.98127
825.8	0.98097
826.0	0.98119
826.2	0.98112
826.4	0.98127
826.6	0.98101
826.8	0.98087
827.0	0.98078
827.2	0.98075
827.4	0.98106
827.6	0.98097
827.8	0.98113
828.0	0.98089
828.2	0.98093
828.4	0.98121
828.6	0.98087
828.8	0.98099
829.0	0.98085
829.2	0.98048
829.4	0.98059
829.6	0.98068
829.8	0.98068
830.0	0.98069
830.2	0.98077
830.4	0.98048
830.6	0.9804
830.8	0.98072
831.0	0.98085
831.2	0.98072
831.4	0.98068
831.6	0.9806
831.8	0.98045
832.0	0.9803
832.2	0.9801
832.4	0.98
832.6	0.98009
832.8	0.97986
833.0	0.98029
833.2	0.98026
833.4	0.98029
833.6	0.97977
833.8	0.98014
834.0	0.97996
834.2	0.97985
834.4	0.97987
834.6	0.97985
834.8	0.9801
835.0	0.97976
835.2	0.97947
835.4	0.97957
835.6	0.97969
835.8	0.97927
836.0	0.97945
836.2	0.97941
836.4	0.9796
836.6	0.97996
836.8	0.97943
837.0	0.97889
837.2	0.97903
837.4	0.97919
837.6	0.9796
837.8	0.97915
838.0	0.97926
838.2	0.97899
838.4	0.97912
838.6	0.9791
838.8	0.97883
839.0	0.97896
839.2	0.97896
839.4	0.9789
839.6	0.97876
839.8	0.9788
840.0	0.97861
840.2	0.97841
840.4	0.9784
840.6	0.97845
840.8	0.97853
841.0	0.97883
841.2	0.97879
841.4	0.97873
841.6	0.97864
841.8	0.97867
842.0	0.97835
842.2	0.97852
842.4	0.97815
842.6	0.97799
842.8	0.9784
843.0	0.97828
843.2	0.97805
843.4	0.97831
843.6	0.97811
843.8	0.97816
844.0	0.97879
844.2	0.97839
844.4	0.97859
844.6	0.97803
844.8	0.97793
845.0	0.97807
845.2	0.97809
845.4	0.97798
845.6	0.97794
845.8	0.97803
846.0	0.9781
846.2	0.97841
846.4	0.97811
846.6	0.97825
846.8	0.97838
847.0	0.9781
847.2	0.97814
847.4	0.97795
847.6	0.97857
847.8	0.97848
848.0	0.97808
848.2	0.97819
848.4	0.97825
848.6	0.97865
848.8	0.97829
849.0	0.97842
849.2	0.9784
849.4	0.97853
849.6	0.9787
849.8	0.97849
850.0	0.97881
850.2	0.97867
850.4	0.97859
850.6	0.97852
850.8	0.97879
851.0	0.97878
851.2	0.97891
851.4	0.97881
851.6	0.97889
851.8	0.97901
852.0	0.97891
852.2	0.97903
852.4	0.97898
852.6	0.97907
852.8	0.97889
853.0	0.97925
853.2	0.9793
853.4	0.97935
853.6	0.97927
853.8	0.97962
854.0	0.97945
854.2	0.97941
854.4	0.97943
854.6	0.97938
854.8	0.97936
855.0	0.97924
855.2	0.97997
855.4	0.9798
855.6	0.97978
855.8	0.98004
856.0	0.98002
856.2	0.97982
856.4	0.97992
856.6	0.98023
856.8	0.97983
857.0	0.97975
857.2	0.97986
857.4	0.98023
857.6	0.97981
857.8	0.97988
858.0	0.98003
858.2	0.98016
858.4	0.98041
858.6	0.98009
858.8	0.97997
859.0	0.98049
859.2	0.98017
859.4	0.98039
859.6	0.98072
859.8	0.98024
860.0	0.98091
860.2	0.98094
860.4	0.98059
860.6	0.98078
860.8	0.98068
861.0	0.98077
861.2	0.9804
861.4	0.98088
861.6	0.98084
861.8	0.98063
862.0	0.98049
862.2	0.98109
862.4	0.98129
862.6	0.98117
862.8	0.98083
863.0	0.98094
863.2	0.98113
863.4	0.98106
863.6	0.9813
863.8	0.98083
864.0	0.98101
864.2	0.98106
864.4	0.98112
864.6	0.98124
864.8	0.9814
865.0	0.98128
865.2	0.98102
865.4	0.98095
865.6	0.98085
865.8	0.98097
866.0	0.98128
866.2	0.98116
866.4	0.98113
866.6	0.98061
866.8	0.98102
867.0	0.98149
867.2	0.9811
867.4	0.98075
867.6	0.98119
867.8	0.98114
868.0	0.98177
868.2	0.98159
868.4	0.9821
868.6	0.98185
868.8	0.98177
869.0	0.98161
869.2	0.98184
869.4	0.98185
869.6	0.98183
869.8	0.98182
870.0	0.98186
870.2	0.98154
870.4	0.98206
870.6	0.98187
870.8	0.98153
871.0	0.98166
871.2	0.98175
871.4	0.98138
871.6	0.98122
871.8	0.98146
872.0	0.98087
872.2	0.98131
872.4	0.98123
872.6	0.98107
872.8	0.98126
873.0	0.98101
873.2	0.98106
873.4	0.98118
873.6	0.98106
873.8	0.98127
874.0	0.98112
874.2	0.98084
874.4	0.98109
874.6	0.98099
874.8	0.98079
875.0	0.98088
875.2	0.98095
875.4	0.98084
875.6	0.98085
875.8	0.98017
876.0	0.98024
876.2	0.98017
876.4	0.98049
876.6	0.98067
876.8	0.98038
877.0	0.9804
877.2	0.98086
877.4	0.98046
877.6	0.98053
877.8	0.98006
878.0	0.9805
878.2	0.98037
878.4	0.98006
878.6	0.97983
878.8	0.97978
879.0	0.97977
879.2	0.98026
879.4	0.97966
879.6	0.9799
879.8	0.97995
880.0	0.98008
880.2	0.97988
880.4	0.97984
880.6	0.9799
880.8	0.97971
881.0	0.97996
881.2	0.97972
881.4	0.97949
881.6	0.97944
881.8	0.97959
882.0	0.97936
882.2	0.97972
882.4	0.97973
882.6	0.97961
882.8	0.97974
883.0	0.97974
883.2	0.9794
883.4	0.97963
883.6	0.97961
883.8	0.97954
884.0	0.9796
884.2	0.97976
884.4	0.97944
884.6	0.97971
884.8	0.97956
885.0	0.97977
885.2	0.97958
885.4	0.97972
885.6	0.97941
885.8	0.97943
886.0	0.97971
886.2	0.97977
886.4	0.97969
886.6	0.97959
886.8	0.97951
887.0	0.97992
887.2	0.97987
887.4	0.97965
887.6	0.97984
887.8	0.97988
888.0	0.97985
888.2	0.97985
888.4	0.97984
888.6	0.97983
888.8	0.97982
889.0	0.97998
889.2	0.98023
889.4	0.97996
889.6	0.98
889.8	0.97982
890.0	0.98009
890.2	0.97979
890.4	0.97987
890.6	0.98023
890.8	0.98018
891.0	0.98021
891.2	0.9802
891.4	0.98048
891.6	0.97998
891.8	0.98052
892.0	0.98068
892.2	0.98068
892.4	0.9807
892.6	0.98062
892.8	0.98068
893.0	0.98067
893.2	0.98064
893.4	0.98066
893.6	0.98079
893.8	0.98078
894.0	0.9808
894.2	0.98105
894.4	0.98138
894.6	0.98111
894.8	0.98127
895.0	0.98134
895.2	0.98134
895.4	0.98148
895.6	0.98164
895.8	0.98157
896.0	0.98149
896.2	0.98145
896.4	0.98169
896.6	0.98157
896.8	0.98165
897.0	0.9817
897.2	0.98177
897.4	0.98168
897.6	0.98197
897.8	0.98193
898.0	0.98201
898.2	0.98209
898.4	0.98188
898.6	0.98214
898.8	0.98217
899.0	0.98262
899.2	0.98265
899.4	0.98209
899.6	0.98258
899.8	0.98262
900.0	0.98295
900.2	0.98265
900.4	0.98274
900.6	0.98252
900.8	0.98256
901.0	0.98321
901.2	0.98282
901.4	0.9831
901.6	0.98284
901.8	0.98321
902.0	0.98301
902.2	0.98314
902.4	0.98291
902.6	0.98321
902.8	0.98328
903.0	0.9834
903.2	0.98304
903.4	0.98332
903.6	0.98328
903.8	0.98346
904.0	0.98344
904.2	0.98308
904.4	0.98353
904.6	0.9832
904.8	0.9836
905.0	0.98349
905.2	0.98365
905.4	0.98353
905.6	0.98357
905.8	0.98346
906.0	0.9836
906.2	0.98362
906.4	0.98352
906.6	0.98352
906.8	0.98379
907.0	0.98353
907.2	0.98387
907.4	0.98357
907.6	0.98365
907.8	0.98376
908.0	0.98353
908.2	0.98362
908.4	0.98359
908.6	0.9835
908.8	0.984
909.0	0.98346
909.2	0.98355
909.4	0.98392
909.6	0.98358
909.8	0.98364
910.0	0.98347
910.2	0.98369
910.4	0.98342
910.6	0.98342
910.8	0.98335
911.0	0.98347
911.2	0.9836
911.4	0.98369
911.6	0.98348
911.8	0.98339
912.0	0.98366
912.2	0.98344
912.4	0.98283
912.6	0.98316
912.8	0.98332
913.0	0.98309
913.2	0.9832
913.4	0.98337
913.6	0.98344
913.8	0.98303
914.0	0.98307
914.2	0.98326
914.4	0.9832
914.6	0.9833
914.8	0.98304
915.0	0.98315
915.2	0.98292
915.4	0.98286
915.6	0.98276
915.8	0.98269
916.0	0.9828
916.2	0.98297
916.4	0.98258
916.6	0.98272
916.8	0.98245
917.0	0.98251
917.2	0.98246
917.4	0.9826
917.6	0.98248
917.8	0.98239
918.0	0.98211
918.2	0.98254
918.4	0.98229
918.6	0.98261
918.8	0.98276
919.0	0.98245
919.2	0.98229
919.4	0.98221
919.6	0.98254
919.8	0.98216
920.0	0.98204
920.2	0.98227
920.4	0.98189
920.6	0.98184
920.8	0.9821
921.0	0.98218
921.2	0.9824
921.4	0.98189
921.6	0.9812
921.8	0.98162
922.0	0.9815
922.2	0.98182
922.4	0.98215
922.6	0.98169
922.8	0.98171
923.0	0.98152
923.2	0.98156
923.4	0.98136
923.6	0.98126
923.8	0.9816
924.0	0.98147
924.2	0.9815
924.4	0.98149
924.6	0.98139
924.8	0.98136
925.0	0.98171
925.2	0.98158
925.4	0.98128
925.6	0.98122
925.8	0.98121
926.0	0.98147
926.2	0.98167
926.4	0.98124
926.6	0.98157
926.8	0.98172
927.0	0.98149
927.2	0.98134
927.4	0.98117
927.6	0.98131
927.8	0.98149
928.0	0.98142
928.2	0.98092
928.4	0.981
928.6	0.98141
928.8	0.98115
929.0	0.98092
929.2	0.98116
929.4	0.98158
929.6	0.9812
929.8	0.98106
930.0	0.98118
930.2	0.98124
930.4	0.98109
930.6	0.9814
930.8	0.98143
931.0	0.98153
931.2	0.98168
931.4	0.98148
931.6	0.98121
931.8	0.98159
932.0	0.98123
932.2	0.98063
932.4	0.9827
932.6	0.98193
932.8	0.98132
933.0	0.98076
933.2	0.98162
933.4	0.9821
933.6	0.981
933.8	0.98203
934.0	0.97938
934.2	0.98155
934.4	0.98359
934.6	0.98209
934.8	0.98172
935.0	0.98109
935.2	0.98175
935.4	0.98255
935.6	0.98137
935.8	0.98247
936.0	0.98178
936.2	0.98073
936.4	0.98172
936.6	0.98167
936.8	0.98121
937.0	0.98357
937.2	0.98275
937.4	0.98116
937.6	0.98256
937.8	0.98136
938.0	0.98357
938.2	0.98241
938.4	0.98131
938.6	0.98317
938.8	0.98292
939.0	0.98244
939.2	0.98282
939.4	0.98299
939.6	0.98261
939.8	0.98312
940.0	0.98301
940.2	0.98323
940.4	0.98321
940.6	0.98336
940.8	0.98314
941.0	0.98353
941.2	0.98337
941.4	0.98332
941.6	0.98439
941.8	0.9838
942.0	0.98436
942.2	0.98407
942.4	0.98225
942.6	0.98498
942.8	0.9851
943.0	0.98515
943.2	0.9847
943.4	0.98368
943.6	0.98473
943.8	0.98236
944.0	0.98643
944.2	0.98575
944.4	0.98516
944.6	0.98559
944.8	0.98518
945.0	0.98561
945.2	0.98478
945.4	0.98604
945.6	0.98603
945.8	0.98423
946.0	0.98667
946.2	0.98578
946.4	0.9855
946.6	0.98543
946.8	0.98617
947.0	0.98606
947.2	0.98564
947.4	0.98642
947.6	0.98635
947.8	0.98496
948.0	0.9875
948.2	0.98636
948.4	0.98571
948.6	0.98669
948.8	0.98666
949.0	0.98602
949.2	0.98625
949.4	0.98678
949.6	0.98646
949.8	0.98453
950.0	0.98776
950.2	0.98683
950.4	0.98632
950.6	0.98591
950.8	0.98673
951.0	0.98662
951.2	0.98663
951.4	0.98594
951.6	0.98705
951.8	0.98675
952.0	0.98639
952.2	0.98708
952.4	0.98665
952.6	0.98624
952.8	0.98701
953.0	0.98679
953.2	0.9868
953.4	0.98671
953.6	0.98723
953.8	0.98719
954.0	0.986
954.2	0.98675
954.4	0.98712
954.6	0.9866
954.8	0.98685
955.0	0.98659
955.2	0.98665
955.4	0.98656
955.6	0.98714
955.8	0.98655
956.0	0.98673
956.2	0.98632
956.4	0.98679
956.6	0.98692
956.8	0.98635
957.0	0.98592
957.2	0.98658
957.4	0.98647
957.6	0.98634
957.8	0.98576
958.0	0.9866
958.2	0.98638
958.4	0.98615
958.6	0.98611
958.8	0.98644
959.0	0.98586
959.2	0.98571
959.4	0.98586
959.6	0.98592
959.8	0.98703
960.0	0.98578
960.2	0.98568
960.4	0.98644
960.6	0.98609
960.8	0.98594
961.0	0.98602
961.2	0.98582
961.4	0.98586
961.6	0.9856
961.8	0.98568
962.0	0.98535
962.2	0.9857
962.4	0.98571
962.6	0.98563
962.8	0.9861
963.0	0.98518
963.2	0.98494
963.4	0.98539
963.6	0.9856
963.8	0.9852
964.0	0.98535
964.2	0.9852
964.4	0.98526
964.6	0.98535
964.8	0.98557
965.0	0.98514
965.2	0.98418
965.4	0.98463
965.6	0.98535
965.8	0.98484
966.0	0.98508
966.2	0.98544
966.4	0.98552
966.6	0.98443
966.8	0.98437
967.0	0.98471
967.2	0.98454
967.4	0.98459
967.6	0.98412
967.8	0.98403
968.0	0.98437
968.2	0.98418
968.4	0.9843
968.6	0.98444
968.8	0.9842
969.0	0.98422
969.2	0.98431
969.4	0.98403
969.6	0.98369
969.8	0.98352
970.0	0.9841
970.2	0.98444
970.4	0.98423
970.6	0.98339
970.8	0.98354
971.0	0.98359
971.2	0.9835
971.4	0.98343
971.6	0.98294
971.8	0.98322
972.0	0.9833
972.2	0.9835
972.4	0.98338
972.6	0.98324
972.8	0.98319
973.0	0.98328
973.2	0.98393
973.4	0.98335
973.6	0.98286
973.8	0.98309
974.0	0.98337
974.2	0.98262
974.4	0.98298
974.6	0.98336
974.8	0.98318
975.0	0.98269
975.2	0.98322
975.4	0.983
975.6	0.98285
975.8	0.98276
976.0	0.98222
976.2	0.98322
976.4	0.98246
976.6	0.98343
976.8	0.9828
977.0	0.98279
977.2	0.98283
977.4	0.98208
977.6	0.98293
977.8	0.98292
978.0	0.98256
978.2	0.98244
978.4	0.98203
978.6	0.98278
978.8	0.98239
979.0	0.98283
979.2	0.9829
979.4	0.9829
979.6	0.98258
979.8	0.98237
980.0	0.98291
980.2	0.98251
980.4	0.98309
980.6	0.98312
980.8	0.98243
981.0	0.98245
981.2	0.9827
981.4	0.98247
981.6	0.98283
981.8	0.98249
982.0	0.98258
982.2	0.98276
982.4	0.98307
982.6	0.983
982.8	0.983
983.0	0.9828
983.2	0.98279
983.4	0.98341
983.6	0.98307
983.8	0.98286
984.0	0.9837
984.2	0.98313
984.4	0.98347
984.6	0.98339
984.8	0.98271
985.0	0.98262
985.2	0.98346
985.4	0.98332
985.6	0.98324
985.8	0.98369
986.0	0.98357
986.2	0.98379
986.4	0.98356
986.6	0.98315
986.8	0.98293
987.0	0.98372
987.2	0.98417
987.4	0.98417
987.6	0.98392
987.8	0.98362
988.0	0.98348
988.2	0.98385
988.4	0.98449
988.6	0.98409
988.8	0.98381
989.0	0.98382
989.2	0.9845
989.4	0.98426
989.6	0.98414
989.8	0.98448
990.0	0.98497
990.2	0.98479
990.4	0.98367
990.6	0.98407
990.8	0.98496
991.0	0.98461
991.2	0.9845
991.4	0.98443
991.6	0.98453
991.8	0.98545
992.0	0.98508
992.2	0.98567
992.4	0.98511
992.6	0.98541
992.8	0.98446
993.0	0.98497
993.2	0.98541
993.4	0.98556
993.6	0.98622
993.8	0.98597
994.0	0.98527
994.2	0.98546
994.4	0.98541
994.6	0.98581
994.8	0.98638
995.0	0.98581
995.2	0.9859
995.4	0.98598
995.6	0.98569
995.8	0.98576
996.0	0.98529
996.2	0.98593
996.4	0.98643
996.6	0.9859
996.8	0.98586
997.0	0.98592
997.2	0.98651
997.4	0.98674
997.6	0.98617
997.8	0.98694
998.0	0.98623
998.2	0.98548
998.4	0.98646
998.6	0.98657
998.8	0.98699
999.0	0.98693
999.2	0.98751
999.4	0.98683
999.6	0.98707
999.8	0.98627
1000.0	0.98519
1000.2	0.983
1000.4	0.98272
1000.6	0.98254
1000.8	0.9829
1001.0	0.98295
1001.2	0.98302
1001.4	0.98293
1001.6	0.98312
1001.8	0.98295
1002.0	0.98233
1002.2	0.98274
1002.4	0.98286
1002.6	0.98331
1002.8	0.98287
1003.0	0.98325
1003.2	0.98266
1003.4	0.98323
1003.6	0.98316
1003.8	0.98314
1004.0	0.98278
1004.2	0.98319
1004.4	0.98286
1004.6	0.98256
1004.8	0.98317
1005.0	0.98279
1005.2	0.98245
1005.4	0.98229
1005.6	0.98303
1005.8	0.98251
1006.0	0.98274
1006.2	0.98288
1006.4	0.98291
1006.6	0.98273
1006.8	0.98244
1007.0	0.98254
1007.2	0.98243
1007.4	0.9825
1007.6	0.98231
1007.8	0.98225
1008.0	0.98232
1008.2	0.98235
1008.4	0.98232
1008.6	0.98202
1008.8	0.98229
1009.0	0.98205
1009.2	0.98268
1009.4	0.98217
1009.6	0.98189
1009.8	0.98169
1010.0	0.98134
1010.2	0.98229
1010.4	0.9825
1010.6	0.98282
1010.8	0.98205
1011.0	0.98172
1011.2	0.98217
1011.4	0.98188
1011.6	0.98124
1011.8	0.98171
1012.0	0.98181
1012.2	0.98176
1012.4	0.98124
1012.6	0.98108
1012.8	0.98171
1013.0	0.98115
1013.2	0.98073
1013.4	0.98128
1013.6	0.9812
1013.8	0.98201
1014.0	0.98148
1014.2	0.98066
1014.4	0.9808
1014.6	0.98121
1014.8	0.98139
1015.0	0.98038
1015.2	0.98095
1015.4	0.98059
1015.6	0.98021
1015.8	0.97945
1016.0	0.98048
1016.2	0.98038
1016.4	0.9806
1016.6	0.97996
1016.8	0.98009
1017.0	0.9799
1017.2	0.98008
1017.4	0.98019
1017.6	0.97991
1017.8	0.98004
1018.0	0.97963
1018.2	0.97981
1018.4	0.97983
1018.6	0.97983
1018.8	0.97992
1019.0	0.97945
1019.2	0.97868
1019.4	0.97967
1019.6	0.9795
1019.8	0.97912
1020.0	0.9788
1020.2	0.9793
1020.4	0.97897
1020.6	0.97883
1020.8	0.9793
1021.0	0.97831
1021.2	0.97868
1021.4	0.97828
1021.6	0.97905
1021.8	0.97823
1022.0	0.97826
1022.2	0.97832
1022.4	0.97806
1022.6	0.97855
1022.8	0.97806
1023.0	0.97834
1023.2	0.97851
1023.4	0.97796
1023.6	0.97813
1023.8	0.97806
1024.0	0.97815
1024.2	0.97763
1024.4	0.97766
1024.6	0.97787
1024.8	0.97758
1025.0	0.97786
1025.2	0.97661
1025.4	0.97742
1025.6	0.97731
1025.8	0.97777
1026.0	0.97725
1026.2	0.97698
1026.4	0.97648
1026.6	0.97702
1026.8	0.97648
1027.0	0.97603
1027.2	0.97603
1027.4	0.97664
1027.6	0.97728
1027.8	0.97622
1028.0	0.97601
1028.2	0.97702
1028.4	0.97622
1028.6	0.97639
1028.8	0.97618
1029.0	0.97608
1029.2	0.97611
1029.4	0.97619
1029.6	0.97618
1029.8	0.97603
1030.0	0.9756
1030.2	0.97569
1030.4	0.97619
1030.6	0.97634
1030.8	0.97612
1031.0	0.9763
1031.2	0.97624
1031.4	0.9757
1031.6	0.97611
1031.8	0.97601
1032.0	0.97621
1032.2	0.97634
1032.4	0.97602
1032.6	0.97603
1032.8	0.97657
1033.0	0.97595
1033.2	0.97566
1033.4	0.97665
1033.6	0.97554
1033.8	0.97573
1034.0	0.97651
1034.2	0.97619
1034.4	0.97595
1034.6	0.97646
1034.8	0.97641
1035.0	0.97614
1035.2	0.97683
1035.4	0.97608
1035.6	0.97566
1035.8	0.97532
1036.0	0.97629
1036.2	0.97602
1036.4	0.97596
1036.6	0.97582
1036.8	0.97556
1037.0	0.97541
1037.2	0.97536
1037.4	0.97593
1037.6	0.97745
1037.8	0.97638
1038.0	0.9766
1038.2	0.97648
1038.4	0.97744
1038.6	0.97665
1038.8	0.97729
1039.0	0.97663
1039.2	0.97646
1039.4	0.97752
1039.6	0.97677
1039.8	0.97698
1040.0	0.97788
1040.2	0.9771
1040.4	0.97736
1040.6	0.97683
1040.8	0.97724
1041.0	0.97703
1041.2	0.97705
1041.4	0.97672
1041.6	0.97677
1041.8	0.97718
1042.0	0.97727
1042.2	0.97737
1042.4	0.97704
1042.6	0.97639
1042.8	0.97676
1043.0	0.97759
1043.2	0.97707
1043.4	0.97735
1043.6	0.97702
1043.8	0.97772
1044.0	0.97696
1044.2	0.97692
1044.4	0.97691
1044.6	0.97669
1044.8	0.97761
1045.0	0.97704
1045.2	0.97607
1045.4	0.97708
1045.6	0.9775
1045.8	0.97811
1046.0	0.97793
1046.2	0.97652
1046.4	0.97788
1046.6	0.97691
1046.8	0.9768
1047.0	0.9778
1047.2	0.97732
1047.4	0.9776
1047.6	0.97813
1047.8	0.97785
1048.0	0.97691
1048.2	0.97794
1048.4	0.97765
1048.6	0.97801
1048.8	0.97774
1049.0	0.97814
1049.2	0.9782
1049.4	0.97713
1049.6	0.9777
1049.8	0.97842
1050.0	0.97723
1050.2	0.97797
1050.4	0.97816
1050.6	0.97832
1050.8	0.97884
1051.0	0.97818
1051.2	0.97818
1051.4	0.9787
1051.6	0.97861
1051.8	0.97866
1052.0	0.97817
1052.2	0.97901
1052.4	0.97886
1052.6	0.97932
1052.8	0.97957
1053.0	0.97903
1053.2	0.97808
1053.4	0.97854
1053.6	0.97978
1053.8	0.97878
1054.0	0.97911
1054.2	0.97984
1054.4	0.97911
1054.6	0.98006
1054.8	0.97833
1055.0	0.97958
1055.2	0.97865
1055.4	0.97878
1055.6	0.97882
1055.8	0.97804
1056.0	0.97909
1056.2	0.97913
1056.4	0.97901
1056.6	0.9788
1056.8	0.97946
1057.0	0.97977
1057.2	0.97971
1057.4	0.97929
1057.6	0.97981
1057.8	0.97874
1058.0	0.97911
1058.2	0.97949
1058.4	0.97874
1058.6	0.97908
1058.8	0.97929
1059.0	0.97838
1059.2	0.97883
1059.4	0.97906
1059.6	0.97872
1059.8	0.97916
1060.0	0.97938
1060.2	0.97933
1060.4	0.97984
1060.6	0.97804
1060.8	0.97779
1061.0	0.97823
1061.2	0.97758
1061.4	0.97806
1061.6	0.97798
1061.8	0.97959
1062.0	0.97783
1062.2	0.97872
1062.4	0.97811
1062.6	0.97739
1062.8	0.97745
1063.0	0.97887
1063.2	0.97769
1063.4	0.97852
1063.6	0.97945
1063.8	0.97835
1064.0	0.97732
1064.2	0.977
1064.4	0.97749
1064.6	0.97926
1064.8	0.9781
1065.0	0.97718
1065.2	0.97799
1065.4	0.9778
1065.6	0.9774
1065.8	0.97731
1066.0	0.97695
1066.2	0.97684
1066.4	0.97772
1066.6	0.9777
1066.8	0.97638
1067.0	0.97664
1067.2	0.97663
1067.4	0.97474
1067.6	0.97637
1067.8	0.97551
1068.0	0.9763
1068.2	0.97478
1068.4	0.97595
1068.6	0.97711
1068.8	0.97494
1069.0	0.97392
1069.2	0.97496
1069.4	0.97551
1069.6	0.97629
1069.8	0.9751
1070.0	0.97575
1070.2	0.97442
1070.4	0.97484
1070.6	0.97508
1070.8	0.975
1071.0	0.97432
1071.2	0.97414
1071.4	0.97452
1071.6	0.97617
1071.8	0.97483
1072.0	0.97376
1072.2	0.97559
1072.4	0.97375
1072.6	0.97439
1072.8	0.9736
1073.0	0.973
1073.2	0.97318
1073.4	0.97309
1073.6	0.9732
1073.8	0.97395
1074.0	0.97424
1074.2	0.97268
1074.4	0.97353
1074.6	0.9723
1074.8	0.97344
1075.0	0.97303
1075.2	0.97338
1075.4	0.97142
1075.6	0.97186
1075.8	0.97246
1076.0	0.97154
1076.2	0.97158
1076.4	0.97206
1076.6	0.9718
1076.8	0.97209
1077.0	0.97157
1077.2	0.97396
1077.4	0.97096
1077.6	0.97129
1077.8	0.97274
1078.0	0.97038
1078.2	0.97173
1078.4	0.97147
1078.6	0.9712
1078.8	0.97132
1079.0	0.9709
1079.2	0.97027
1079.4	0.97059
1079.6	0.97037
1079.8	0.97171
1080.0	0.9725
1080.2	0.9718
1080.4	0.97134
1080.6	0.97043
1080.8	0.96987
1081.0	0.97036
1081.2	0.97125
1081.4	0.97149
1081.6	0.971
1081.8	0.96938
1082.0	0.97065
1082.2	0.97119
1082.4	0.97164
1082.6	0.96967
1082.8	0.97092
1083.0	0.97099
1083.2	0.97103
1083.4	0.96942
1083.6	0.97082
1083.8	0.97073
1084.0	0.96972
1084.2	0.97158
1084.4	0.97139
1084.6	0.96917
1084.8	0.9699
1085.0	0.96954
1085.2	0.96992
1085.4	0.9712
1085.6	0.97048
1085.8	0.97187
1086.0	0.97087
1086.2	0.97168
1086.4	0.97146
1086.6	0.96965
1086.8	0.96859
1087.0	0.97063
1087.2	0.9714
1087.4	0.97067
1087.6	0.97066
1087.8	0.97161
1088.0	0.97038
1088.2	0.97053
1088.4	0.97136
1088.6	0.97079
1088.8	0.97093
1089.0	0.97103
1089.2	0.97145
1089.4	0.97191
1089.6	0.97084
1089.8	0.9711
1090.0	0.97227
1090.2	0.9713
1090.4	0.9721
1090.6	0.97103
1090.8	0.97195
1091.0	0.97409
1091.2	0.9707
1091.4	0.97209
1091.6	0.97192
1091.8	0.97347
1092.0	0.97242
1092.2	0.97307
1092.4	0.97234
1092.6	0.97364
1092.8	0.97449
1093.0	0.97324
1093.2	0.97282
1093.4	0.97419
1093.6	0.97308
1093.8	0.97447
1094.0	0.97296
1094.2	0.97331
1094.4	0.97184
1094.6	0.97411
1094.8	0.97317
1095.0	0.97375
1095.2	0.97538
1095.4	0.97491
1095.6	0.97467
1095.8	0.97391
1096.0	0.9764
1096.2	0.97382
1096.4	0.9754
1096.6	0.97472
1096.8	0.97503
1097.0	0.97517
1097.2	0.97432
1097.4	0.97624
1097.6	0.97576
1097.8	0.97646
1098.0	0.97494
1098.2	0.97409
1098.4	0.97619
1098.6	0.97706
1098.8	0.97477
1099.0	0.9758
1099.2	0.9759
1099.4	0.9774
1099.6	0.97585
1099.8	0.97666
1100.0	0.97768
1100.2	0.97599
1100.4	0.97552
1100.6	0.97445
1100.8	0.9777
1101.0	0.97929
1101.2	0.97589
1101.4	0.97601
1101.6	0.97755
1101.8	0.97612
1102.0	0.97704
1102.2	0.9753
1102.4	0.97775
1102.6	0.97653
1102.8	0.97807
1103.0	0.97731
1103.2	0.97601
1103.4	0.97488
1103.6	0.97817
1103.8	0.97478
1104.0	0.97754
1104.2	0.97751
1104.4	0.97624
1104.6	0.97898
1104.8	0.97414
1105.0	0.97546
1105.2	0.97652
1105.4	0.97565
1105.6	0.97815
1105.8	0.9751
1106.0	0.97534
1106.2	0.97706
1106.4	0.97592
1106.6	0.97382
1106.8	0.9747
1107.0	0.97534
1107.2	0.9742
1107.4	0.97362
1107.6	0.97366
1107.8	0.97492
1108.0	0.97321
1108.2	0.97339
1108.4	0.97549
1108.6	0.97643
1108.8	0.97399
1109.0	0.97279
1109.2	0.97353
1109.4	0.97237
1109.6	0.9726
1109.8	0.97014
1110.0	0.97322
1110.2	0.96931
1110.4	0.9722
1110.6	0.97107
1110.8	0.97133
1111.0	0.96935
1111.2	0.9743
1111.4	0.97067
1111.6	0.97207
1111.8	0.97041
1112.0	0.96899
