Typical Measured Spectrum of Semrock LP02-568RU Optical Filter	
For wavelengths between 320 and 1120 nm, values near or below 3e-7 (Optical Density 6.5) are measurement noise limited.
For wavelengths < 320 nm and > 1120 nm, values near or below 3e-6 (Optical Density 5.5) are measurement noise limited. 
Data format:  Wavelength (nm) <tab> Transmission (0 to 1)
300.0	0.21183
300.2	0.22364
300.4	0.21742
300.6	0.20488
300.8	0.20275
301.0	0.21517
301.2	0.24227
301.4	0.26353
301.6	0.26243
301.8	0.25192
302.0	0.25098
302.2	0.26539
302.4	0.29065
302.6	0.30488
302.8	0.29515
303.0	0.27426
303.2	0.26273
303.4	0.27479
303.6	0.30226
303.8	0.32896
304.0	0.33514
304.2	0.31507
304.4	0.30078
304.6	0.29959
304.8	0.31764
305.0	0.337
305.2	0.33076
305.4	0.30516
305.6	0.27483
305.8	0.26268
306.0	0.27432
306.2	0.30695
306.4	0.34029
306.6	0.35472
306.8	0.34247
307.0	0.32372
307.2	0.3164
307.4	0.33393
307.6	0.36355
307.8	0.38073
308.0	0.35736
308.2	0.31211
308.4	0.28143
308.6	0.27385
308.8	0.29343
309.0	0.33686
309.2	0.37031
309.4	0.36406
309.6	0.32256
309.8	0.28724
310.0	0.27743
310.2	0.29985
310.4	0.3376
310.6	0.35217
310.8	0.3113
311.0	0.24636
311.2	0.202
311.4	0.18411
311.6	0.19558
311.8	0.23806
312.0	0.305
312.2	0.35324
312.4	0.32941
312.6	0.27354
312.8	0.23965
313.0	0.24171
313.2	0.2858
313.4	0.35629
313.6	0.38381
313.8	0.32059
314.0	0.23321
314.2	0.18281
314.4	0.16973
314.6	0.18968
314.8	0.24978
315.0	0.29253
315.2	0.35436
315.4	0.31083
315.6	0.22472
315.8	0.17234
316.0	0.15715
316.2	0.17547
316.4	0.23882
316.6	0.32456
316.8	0.34368
317.0	0.24844
317.2	0.16539
317.4	0.12619
317.6	0.11941
317.8	0.1414
318.0	0.21151
318.2	0.29021
318.4	0.27186
318.6	0.17922
318.8	0.11901
319.0	0.09619
319.2	0.09879
319.4	0.12836
319.6	0.21258
319.8	0.29212
320.0	0.21744
320.2	0.1105
320.4	0.0628
320.6	0.046
320.8	0.04253
321.0	0.04747
321.2	0.06754
321.4	0.12456
321.6	0.21226
321.8	0.17665
322.0	0.09051
322.2	0.04928
322.4	0.03487
322.6	0.03084
322.8	0.03421
323.0	0.04727
323.2	0.08631
323.4	0.18151
323.6	0.23383
323.8	0.13636
324.0	0.07167
324.2	0.04961
324.4	0.04424
324.6	0.05083
324.8	0.07486
325.0	0.13313
325.2	0.17181
325.4	0.10956
325.6	0.05275
325.8	0.02985
326.0	0.02076
326.2	0.01675
326.4	0.01582
326.6	0.01669
326.8	0.01948
327.0	0.02621
327.2	0.03813
327.4	0.05503
327.6	0.07119
327.8	0.07597
328.0	0.07177
328.2	0.06684
328.4	0.06737
328.6	0.07474
328.8	0.09287
329.0	0.12307
329.2	0.16558
329.4	0.20167
329.6	0.20458
329.8	0.19029
330.0	0.17894
330.2	0.18006
330.4	0.19515
330.6	0.22416
330.8	0.25731
331.0	0.27947
331.2	0.2787
331.4	0.26153
331.6	0.24246
331.8	0.23363
332.0	0.23415
332.2	0.24575
332.4	0.26345
332.6	0.27796
332.8	0.28052
333.0	0.27247
333.2	0.25853
333.4	0.24624
333.6	0.24173
333.8	0.24336
334.0	0.25127
334.2	0.26249
334.4	0.27208
334.6	0.27443
334.8	0.26876
335.0	0.26182
335.2	0.2552
335.4	0.25206
335.6	0.25316
335.8	0.25705
336.0	0.26176
336.2	0.26401
336.4	0.26324
336.6	0.25927
336.8	0.25174
337.0	0.24824
337.2	0.24551
337.4	0.24445
337.6	0.24611
337.8	0.25135
338.0	0.25513
338.2	0.25715
338.4	0.25702
338.6	0.25531
338.8	0.25136
339.0	0.24847
339.2	0.24651
339.4	0.24733
339.6	0.24817
339.8	0.25122
340.0	0.25275
340.2	0.25284
340.4	0.25275
340.6	0.25029
340.8	0.2474
341.0	0.24496
341.2	0.24422
341.4	0.24467
341.6	0.24574
341.8	0.24785
342.0	0.25156
342.2	0.25231
342.4	0.25128
342.6	0.25015
342.8	0.24755
343.0	0.24492
343.2	0.24318
343.4	0.24311
343.6	0.24527
343.8	0.24773
344.0	0.25015
344.2	0.25021
344.4	0.24971
344.6	0.24672
344.8	0.24282
345.0	0.2403
345.2	0.24003
345.4	0.24215
345.6	0.24579
345.8	0.25113
346.0	0.25468
346.2	0.25615
346.4	0.25489
346.6	0.25132
346.8	0.24436
347.0	0.24073
347.2	0.23933
347.4	0.24231
347.6	0.2467
347.8	0.25262
348.0	0.25819
348.2	0.26054
348.4	0.25987
348.6	0.25559
348.8	0.24902
349.0	0.24472
349.2	0.24251
349.4	0.24274
349.6	0.24794
349.8	0.25515
350.0	0.26136
350.2	0.26617
350.4	0.26641
350.6	0.26267
350.8	0.25691
351.0	0.25099
351.2	0.24711
351.4	0.24797
351.6	0.25114
351.8	0.25927
352.0	0.26733
352.2	0.27373
352.4	0.27602
352.6	0.27321
352.8	0.26619
353.0	0.25923
353.2	0.25388
353.4	0.2533
353.6	0.25034
353.8	0.24695
354.0	0.25607
354.2	0.26574
354.4	0.26868
354.6	0.26749
354.8	0.26151
355.0	0.25285
355.2	0.24559
355.4	0.24231
355.6	0.2427
355.8	0.2487
356.0	0.25827
356.2	0.27054
356.4	0.27954
356.6	0.28296
356.8	0.27954
357.0	0.27102
357.2	0.26097
357.4	0.25232
357.6	0.24936
357.8	0.25221
358.0	0.26017
358.2	0.2716
358.4	0.28646
358.6	0.2965
358.8	0.30087
359.0	0.29632
359.2	0.28725
359.4	0.30036
359.6	0.29117
359.8	0.28849
360.0	0.29278
360.2	0.30418
360.4	0.31987
360.6	0.33708
360.8	0.34836
361.0	0.35166
361.2	0.34482
361.4	0.33053
361.6	0.31628
361.8	0.30343
362.0	0.29995
362.2	0.30674
362.4	0.3197
362.6	0.3378
362.8	0.35802
363.0	0.37692
363.2	0.38501
363.4	0.37713
363.6	0.36117
363.8	0.34317
364.0	0.32722
364.2	0.32033
364.4	0.32115
364.6	0.33272
364.8	0.3535
365.0	0.37842
365.2	0.40712
365.4	0.42196
365.6	0.4181
365.8	0.39973
366.0	0.37712
366.2	0.35391
366.4	0.34247
366.6	0.30222
366.8	0.30929
367.0	0.32672
367.2	0.35286
367.4	0.38221
367.6	0.40579
367.8	0.41308
368.0	0.40546
368.2	0.38404
368.4	0.35705
368.6	0.33641
368.8	0.32424
369.0	0.32433
369.2	0.337
369.4	0.35921
369.6	0.39152
369.8	0.42553
370.0	0.45009
370.2	0.45599
370.4	0.43925
370.6	0.41018
370.8	0.37763
371.0	0.35501
371.2	0.34549
371.4	0.34924
371.6	0.36749
371.8	0.3972
372.0	0.43667
372.2	0.47471
372.4	0.49784
372.6	0.49626
372.8	0.47161
373.0	0.43447
373.2	0.40046
373.4	0.37694
373.6	0.36678
373.8	0.37044
374.0	0.39014
374.2	0.42533
374.4	0.47265
374.6	0.52146
374.8	0.55463
375.0	0.55767
375.2	0.53078
375.4	0.48752
375.6	0.44777
375.8	0.41805
376.0	0.40525
376.2	0.41033
376.4	0.43388
376.6	0.47315
376.8	0.52606
377.0	0.57685
377.2	0.60523
377.4	0.59698
377.6	0.55415
377.8	0.49882
378.0	0.44389
378.2	0.41029
378.4	0.39589
378.6	0.40065
378.8	0.42778
379.0	0.47685
379.2	0.54522
379.4	0.61366
379.6	0.67979
379.8	0.69939
380.0	0.65961
380.2	0.58764
380.4	0.51275
380.6	0.45632
380.8	0.42279
381.0	0.40718
381.2	0.41628
381.4	0.44652
381.6	0.50173
381.8	0.5821
382.0	0.67203
382.2	0.74211
382.4	0.75182
382.6	0.69312
382.8	0.60963
383.0	0.53374
383.2	0.47957
383.4	0.45102
383.6	0.44744
383.8	0.46722
384.0	0.5152
384.2	0.58992
384.4	0.68878
384.6	0.78419
384.8	0.82666
385.0	0.79526
385.2	0.71002
385.4	0.60832
385.6	0.52613
385.8	0.46944
386.0	0.44113
386.2	0.43717
386.4	0.46018
386.6	0.50211
386.8	0.57811
387.0	0.67917
387.2	0.78665
387.4	0.85619
387.6	0.85037
387.8	0.77627
388.0	0.66925
388.2	0.58147
388.4	0.5218
388.6	0.49097
388.8	0.48616
389.0	0.50574
389.2	0.55436
389.4	0.62702
389.6	0.71788
389.8	0.80139
390.0	0.84178
390.2	0.81522
390.4	0.73664
390.6	0.64707
390.8	0.57004
391.0	0.51785
391.2	0.49394
391.4	0.49531
391.6	0.52263
391.8	0.57884
392.0	0.66024
392.2	0.75929
392.4	0.84714
392.6	0.89681
392.8	0.86805
393.0	0.78136
393.2	0.67597
393.4	0.58571
393.6	0.52224
393.8	0.48474
394.0	0.47704
394.2	0.49514
394.4	0.53962
394.6	0.60987
394.8	0.70286
395.0	0.79905
395.2	0.86463
395.4	0.85486
395.6	0.78258
395.8	0.68359
396.0	0.59408
396.2	0.52752
396.4	0.48771
396.6	0.47167
396.8	0.4787
397.0	0.51122
397.2	0.56808
397.4	0.64671
397.6	0.73957
397.8	0.81487
398.0	0.83895
398.2	0.79402
398.4	0.7085
398.6	0.61662
398.8	0.54122
399.0	0.49044
399.2	0.46243
399.4	0.45633
399.6	0.47217
399.8	0.50944
400.0	0.56811
400.2	0.64334
400.4	0.71964
400.6	0.76674
400.8	0.75817
401.0	0.69319
401.2	0.6137
401.4	0.53952
401.6	0.48415
401.8	0.45039
402.0	0.43632
402.2	0.44258
402.4	0.4671
402.6	0.51206
402.8	0.57715
403.0	0.65201
403.2	0.71912
403.4	0.74709
403.6	0.72344
403.8	0.66196
404.0	0.58359
404.2	0.51257
404.4	0.46167
404.6	0.42889
404.8	0.4155
405.0	0.422
405.2	0.44447
405.4	0.48658
405.6	0.54627
405.8	0.61728
406.0	0.68197
406.2	0.71686
406.4	0.70605
406.6	0.65143
406.8	0.58283
407.0	0.51741
407.2	0.46851
407.4	0.43614
407.6	0.4235
407.8	0.42611
408.0	0.44479
408.2	0.47808
408.4	0.52385
408.6	0.57443
408.8	0.6157
409.0	0.63267
409.2	0.61523
409.4	0.57659
409.6	0.52517
409.8	0.4751
410.0	0.4362
410.2	0.41117
410.4	0.40078
410.6	0.40297
410.8	0.41879
411.0	0.4459
411.2	0.48524
411.4	0.52712
411.6	0.5638
411.8	0.5807
412.0	0.57295
412.2	0.54253
412.4	0.49701
412.6	0.4564
412.8	0.42383
413.0	0.40299
413.2	0.39384
413.4	0.39765
413.6	0.41211
413.8	0.43732
414.0	0.4691
414.2	0.50239
414.4	0.52713
414.6	0.53464
414.8	0.52239
415.0	0.49212
415.2	0.4578
415.4	0.42159
415.6	0.39233
415.8	0.37226
416.0	0.36265
416.2	0.36267
416.4	0.37268
416.6	0.39156
416.8	0.41725
417.0	0.44362
417.2	0.46621
417.4	0.47842
417.6	0.47457
417.8	0.45658
418.0	0.42923
418.2	0.40073
418.4	0.37728
418.6	0.36001
418.8	0.35136
419.0	0.3513
419.2	0.35907
419.4	0.38415
419.6	0.41026
419.8	0.43297
420.0	0.45068
420.2	0.45816
420.4	0.45357
420.6	0.43644
420.8	0.41378
421.0	0.39179
421.2	0.36937
421.4	0.35321
421.6	0.34384
421.8	0.34236
422.0	0.34828
422.2	0.36123
422.4	0.37752
422.6	0.39992
422.8	0.42061
423.0	0.43536
423.2	0.44026
423.4	0.43425
423.6	0.41794
423.8	0.39131
424.0	0.37103
424.2	0.35435
424.4	0.34228
424.6	0.33637
424.8	0.33646
425.0	0.34107
425.2	0.35247
425.4	0.36203
425.6	0.37182
425.8	0.37727
426.0	0.37788
426.2	0.37427
426.4	0.36616
426.6	0.35232
426.8	0.343
427.0	0.33585
427.2	0.33107
427.4	0.32996
427.6	0.33244
427.8	0.33604
428.0	0.3407
428.2	0.34454
428.4	0.34705
428.6	0.34561
428.8	0.34091
429.0	0.33486
429.2	0.3271
429.4	0.3215
429.6	0.31734
429.8	0.31538
430.0	0.31659
430.2	0.31936
430.4	0.32343
430.6	0.32717
430.8	0.32902
431.0	0.32662
431.2	0.32134
431.4	0.31277
431.6	0.30256
431.8	0.29304
432.0	0.28541
432.2	0.28107
432.4	0.28095
432.6	0.28459
432.8	0.29152
433.0	0.29977
433.2	0.30771
433.4	0.31215
433.6	0.31181
433.8	0.30565
434.0	0.29522
434.2	0.28244
434.4	0.26993
434.6	0.26002
434.8	0.2539
435.0	0.25223
435.2	0.25547
435.4	0.26353
435.6	0.27424
435.8	0.2851
436.0	0.29278
436.2	0.29335
436.4	0.28627
436.6	0.27331
436.8	0.25689
437.0	0.24125
437.2	0.22915
437.4	0.22243
437.6	0.22105
437.8	0.22731
438.0	0.24063
438.2	0.25786
438.4	0.27583
438.6	0.28813
438.8	0.28789
439.0	0.27284
439.2	0.2481
439.4	0.22365
439.6	0.20343
439.8	0.18529
440.0	0.17556
440.2	0.17291
440.4	0.1789
440.6	0.19318
440.8	0.21589
441.0	0.24393
441.2	0.26951
441.4	0.278
441.6	0.26205
441.8	0.22953
442.0	0.1944
442.2	0.16595
442.4	0.14569
442.6	0.13689
442.8	0.1368
443.0	0.14606
443.2	0.16598
443.4	0.19687
443.6	0.23465
443.8	0.26245
444.0	0.25713
444.2	0.21906
444.4	0.17286
444.6	0.13676
444.8	0.11347
445.0	0.10083
445.2	0.09652
445.4	0.10092
445.6	0.11478
445.8	0.14311
446.0	0.18779
446.2	0.23526
446.4	0.24452
446.6	0.18927
446.8	0.13351
447.0	0.09761
447.2	0.07722
447.4	0.06843
447.6	0.06742
447.8	0.07465
448.0	0.09343
448.2	0.13207
448.4	0.19445
448.6	0.22923
448.8	0.17933
449.0	0.11202
449.2	0.07169
449.4	0.05218
449.6	0.04375
449.8	0.04314
450.0	0.05001
450.2	0.06995
450.4	0.11762
450.6	0.18646
450.8	0.1706
451.0	0.09469
451.2	0.0501
451.4	0.03223
451.6	0.02575
451.8	0.02479
452.0	0.02964
452.2	0.04757
452.4	0.11744
452.6	0.15299
452.8	0.07341
453.0	0.02913
453.2	0.01639
453.4	0.01239
453.6	0.01247
453.8	0.01897
454.0	0.05141
454.2	0.10866
454.4	0.04645
454.6	0.01244
454.8	0.00627
455.0	0.00494
455.2	0.00611
455.4	0.02275
455.6	0.06525
455.8	0.01509
456.0	0.00268
456.2	0.00151
456.4	0.00214
456.6	0.01837
456.8	0.01222
457.0	6.8632e-04
457.2	2.311e-04
457.4	0.00164
457.6	0.00159
457.8	6.7849e-05
458.0	2.0081e-05
458.2	1.9945e-06
458.4	1.6359e-06
458.6	3.2617e-07
458.8	3.3567e-07
459.0	4.8107e-07
459.2	3.6896e-07
459.4	1.0496e-06
459.6	3.2341e-07
459.8	6.1785e-07
460.0	4.5781e-07
460.2	4.4862e-07
460.4	3.1919e-07
460.6	3.1865e-07
460.8	3.1794e-07
461.0	3.914e-07
461.2	3.1285e-07
461.4	3.1159e-07
461.6	3.1053e-07
461.8	3.099e-07
462.0	1.3251e-06
462.2	5.5484e-07
462.4	1.0107e-06
462.6	9.8816e-07
462.8	4.6727e-07
463.0	3.0472e-07
463.2	3.0411e-07
463.4	3.0322e-07
463.6	3.0232e-07
463.8	3.032e-07
464.0	3.2807e-07
464.2	3.0119e-07
464.4	2.9966e-07
464.6	2.9855e-07
464.8	2.9749e-07
465.0	8.5355e-07
465.2	2.9574e-07
465.4	4.9722e-07
465.6	2.9367e-07
465.8	2.9236e-07
466.0	2.9154e-07
466.2	5.6738e-07
466.4	2.8953e-07
466.6	5.3926e-07
466.8	2.8839e-07
467.0	2.8689e-07
467.2	5.4489e-07
467.4	7.5456e-07
467.6	2.8389e-07
467.8	2.8327e-07
468.0	2.8317e-07
468.2	2.8276e-07
468.4	2.8211e-07
468.6	2.8098e-07
468.8	8.2382e-07
469.0	2.7884e-07
469.2	3.8065e-07
469.4	2.6251e-07
469.6	1.1993e-07
469.8	1.1936e-07
470.0	2.993e-07
470.2	2.5934e-07
470.4	1.1776e-07
470.6	1.6901e-07
470.8	1.1719e-07
471.0	1.5163e-07
471.2	1.5166e-07
471.4	2.3198e-07
471.6	1.1542e-07
471.8	1.939e-07
472.0	1.1475e-07
472.2	1.6319e-07
472.4	1.1414e-07
472.6	1.7479e-07
472.8	1.3461e-07
473.0	1.3901e-07
473.2	1.1231e-07
473.4	1.1182e-07
473.6	1.1155e-07
473.8	1.1138e-07
474.0	2.8401e-07
474.2	1.1029e-07
474.4	1.2191e-07
474.6	1.0939e-07
474.8	1.0904e-07
475.0	1.1141e-07
475.2	1.4964e-07
475.4	4.2066e-07
475.6	1.0756e-07
475.8	2.4518e-07
476.0	1.101e-07
476.2	3.7516e-07
476.4	1.8576e-07
476.6	2.7991e-07
476.8	1.3144e-07
477.0	3.1361e-07
477.2	1.9245e-07
477.4	1.8215e-07
477.6	1.1803e-07
477.8	1.3882e-07
478.0	1.0302e-07
478.2	1.639e-07
478.4	1.0189e-07
478.6	1.1571e-07
478.8	1.01e-07
479.0	1.0063e-07
479.2	1.0034e-07
479.4	1.1818e-07
479.6	1.7315e-07
479.8	1.8816e-07
480.0	2.0247e-07
480.2	9.8294e-08
480.4	1.606e-07
480.6	9.7563e-08
480.8	1.8461e-07
481.0	9.8441e-08
481.2	9.6363e-08
481.4	9.5959e-08
481.6	1.0364e-07
481.8	1.6467e-07
482.0	1.7446e-07
482.2	1.7369e-07
482.4	9.4097e-08
482.6	2.4355e-07
482.8	9.331e-08
483.0	9.2802e-08
483.2	2.5309e-07
483.4	9.2091e-08
483.6	9.4851e-08
483.8	2.2592e-07
484.0	3.5355e-07
484.2	9.0505e-08
484.4	9.0073e-08
484.6	8.9715e-08
484.8	2.2523e-07
485.0	1.5605e-07
485.2	8.8636e-08
485.4	8.8293e-08
485.6	4.8313e-07
485.8	1.5829e-07
486.0	2.1168e-07
486.2	1.0673e-07
486.4	8.6234e-08
486.6	8.6023e-08
486.8	1.6307e-07
487.0	1.0098e-07
487.2	1.6952e-07
487.4	1.3157e-07
487.6	8.3984e-08
487.8	2.3557e-07
488.0	8.3354e-08
488.2	8.3063e-08
488.4	8.2622e-08
488.6	8.2161e-08
488.8	8.1805e-08
489.0	8.1501e-08
489.2	8.1128e-08
489.4	1.6185e-07
489.6	8.0545e-08
489.8	1.0831e-07
490.0	1.2581e-07
490.2	7.9477e-08
490.4	1.5486e-07
490.6	9.8527e-08
490.8	1.1699e-07
491.0	7.8244e-08
491.2	7.7682e-08
491.4	1.4505e-07
491.6	1.0034e-07
491.8	7.6738e-08
492.0	7.6466e-08
492.2	8.5692e-08
492.4	1.0468e-07
492.6	1.3559e-07
492.8	7.5214e-08
493.0	7.4781e-08
493.2	7.5606e-08
493.4	7.4286e-08
493.6	7.4125e-08
493.8	2.752e-07
494.0	2.2211e-07
494.2	7.3041e-08
494.4	7.2634e-08
494.6	7.2298e-08
494.8	7.2033e-08
495.0	1.8275e-07
495.2	2.09e-07
495.4	7.1215e-08
495.6	8.9534e-08
495.8	2.2356e-07
496.0	1.4021e-07
496.2	6.9872e-08
496.4	6.9691e-08
496.6	6.9407e-08
496.8	8.4092e-08
497.0	1.0141e-07
497.2	1.9276e-07
497.4	6.822e-08
497.6	6.8062e-08
497.8	2.8767e-07
498.0	9.7049e-08
498.2	1.7231e-07
498.4	7.8978e-08
498.6	6.6663e-08
498.8	1.9925e-07
499.0	6.627e-08
499.2	1.1199e-07
499.4	8.6292e-08
499.6	6.5251e-08
499.8	6.5507e-08
500.0	9.8593e-08
500.2	9.1379e-08
500.4	7.7144e-08
500.6	8.7695e-08
500.8	6.2366e-08
501.0	9.3863e-08
501.2	1.064e-07
501.4	6.136e-08
501.6	8.9836e-08
501.8	3.7812e-07
502.0	7.5436e-08
502.2	6.0242e-08
502.4	1.7998e-07
502.6	9.554e-08
502.8	5.9369e-08
503.0	1.6062e-07
503.2	5.893e-08
503.4	6.2881e-08
503.6	1.5217e-07
503.8	1.7178e-07
504.0	9.6233e-08
504.2	5.8586e-08
504.4	6.6686e-08
504.6	1.01e-07
504.8	1.8013e-07
505.0	5.8182e-08
505.2	9.7766e-08
505.4	5.7865e-08
505.6	5.7578e-08
505.8	5.7321e-08
506.0	9.3637e-08
506.2	8.1813e-08
506.4	6.2286e-08
506.6	9.4521e-08
506.8	5.5591e-08
507.0	7.5521e-08
507.2	5.4814e-08
507.4	1.5335e-07
507.6	5.4327e-08
507.8	7.0104e-08
508.0	5.3762e-08
508.2	1.0051e-07
508.4	5.3461e-08
508.6	1.6779e-07
508.8	7.1935e-08
509.0	5.312e-08
509.2	2.2437e-07
509.4	5.4023e-08
509.6	8.2486e-08
509.8	6.2866e-08
510.0	1.9276e-07
510.2	5.2685e-08
510.4	1.4027e-07
510.6	5.9548e-08
510.8	1.3469e-07
511.0	8.8524e-08
511.2	6.7664e-08
511.4	5.2522e-08
511.6	1.5437e-07
511.8	5.9918e-08
512.0	8.8533e-08
512.2	5.0875e-08
512.4	5.9795e-08
512.6	1.01e-07
512.8	5.0236e-08
513.0	1.2777e-07
513.2	6.3485e-08
513.4	5.2841e-08
513.6	4.9981e-08
513.8	4.9897e-08
514.0	4.9779e-08
514.2	4.9757e-08
514.4	4.9726e-08
514.6	1.3791e-07
514.8	4.9526e-08
515.0	7.0545e-08
515.2	9.0828e-08
515.4	5.8938e-08
515.6	4.9007e-08
515.8	5.002e-08
516.0	1.4564e-07
516.2	2.5406e-07
516.4	4.8158e-08
516.6	1.355e-07
516.8	4.7646e-08
517.0	4.729e-08
517.2	5.2204e-08
517.4	7.0752e-08
517.6	7.4688e-08
517.8	1.0572e-07
518.0	4.6279e-08
518.2	9.0535e-08
518.4	8.8017e-08
518.6	4.5912e-08
518.8	1.4314e-07
519.0	1.0661e-07
519.2	1.1882e-07
519.4	6.4035e-08
519.6	4.877e-08
519.8	9.9788e-08
520.0	1.0399e-07
520.2	9.0818e-08
520.4	1.3383e-07
520.6	9.0617e-08
520.8	4.5232e-08
521.0	5.269e-08
521.2	1.0051e-07
521.4	6.1124e-08
521.6	1.232e-07
521.8	9.3404e-08
522.0	1.3756e-07
522.2	6.5799e-08
522.4	7.1657e-08
522.6	8.5361e-08
522.8	1.2451e-07
523.0	4.3042e-08
523.2	1.3409e-07
523.4	4.2817e-08
523.6	4.9324e-08
523.8	7.468e-08
524.0	1.4865e-07
524.2	5.1715e-08
524.4	8.089e-08
524.6	4.2231e-08
524.8	9.909e-08
525.0	4.2476e-08
525.2	4.203e-08
525.4	4.1961e-08
525.6	4.1858e-08
525.8	4.1731e-08
526.0	4.1668e-08
526.2	4.1599e-08
526.4	4.1505e-08
526.6	5.4418e-08
526.8	6.8715e-08
527.0	8.0623e-08
527.2	4.0915e-08
527.4	4.0802e-08
527.6	4.0783e-08
527.8	5.839e-08
528.0	7.4521e-08
528.2	7.0912e-08
528.4	1.2081e-07
528.6	4.0154e-08
528.8	6.3565e-08
529.0	1.5053e-07
529.2	9.094e-08
529.4	3.9806e-08
529.6	3.9714e-08
529.8	3.9701e-08
530.0	3.9617e-08
530.2	5.7453e-08
530.4	4.8208e-08
530.6	5.3306e-08
530.8	7.6188e-08
531.0	3.927e-08
531.2	1.2937e-07
531.4	3.8961e-08
531.6	1.027e-07
531.8	3.9455e-08
532.0	7.4185e-08
532.2	6.7027e-08
532.4	4.934e-08
532.6	1.2913e-07
532.8	4.1577e-08
533.0	3.8119e-08
533.2	5.0882e-08
533.4	8.5583e-08
533.6	4.8127e-08
533.8	4.0059e-08
534.0	3.7769e-08
534.2	6.6149e-08
534.4	1.1998e-07
534.6	6.6771e-08
534.8	4.0663e-08
535.0	9.2345e-08
535.2	3.7639e-08
535.4	5.0827e-08
535.6	4.7703e-08
535.8	3.9577e-08
536.0	6.2132e-08
536.2	3.7431e-08
536.4	7.1047e-08
536.6	4.1363e-08
536.8	3.7013e-08
537.0	5.6774e-08
537.2	1.102e-07
537.4	9.6556e-08
537.6	3.9706e-08
537.8	5.6478e-08
538.0	3.6468e-08
538.2	3.6319e-08
538.4	5.2155e-08
538.6	3.9711e-08
538.8	4.0529e-08
539.0	6.2231e-08
539.2	4.058e-08
539.4	3.6052e-08
539.6	3.598e-08
539.8	6.1529e-08
540.0	1.3985e-07
540.2	4.1496e-08
540.4	7.9993e-08
540.6	2.2398e-07
540.8	3.5925e-08
541.0	3.839e-08
541.2	3.5772e-08
541.4	9.167e-08
541.6	7.2115e-08
541.8	3.5695e-08
542.0	3.565e-08
542.2	6.2387e-08
542.4	3.5445e-08
542.6	3.5383e-08
542.8	1.7592e-07
543.0	3.9102e-08
543.2	1.1843e-07
543.4	3.5083e-08
543.6	8.2294e-08
543.8	6.5006e-08
544.0	3.4851e-08
544.2	7.9972e-08
544.4	4.172e-08
544.6	3.4761e-08
544.8	4.6431e-08
545.0	3.4607e-08
545.2	3.4615e-08
545.4	7.558e-08
545.6	1.2729e-07
545.8	9.1119e-08
546.0	4.2173e-08
546.2	7.6324e-08
546.4	3.4552e-08
546.6	4.4012e-08
546.8	3.4461e-08
547.0	3.7764e-08
547.2	7.0668e-08
547.4	9.0712e-08
547.6	3.4448e-08
547.8	3.4347e-08
548.0	3.4354e-08
548.2	3.433e-08
548.4	1.8432e-07
548.6	6.8413e-08
548.8	1.3324e-07
549.0	1.1341e-07
549.2	2.1275e-07
549.4	6.2104e-08
549.6	3.398e-08
549.8	3.3961e-08
550.0	1.0955e-07
550.2	4.4929e-08
550.4	4.1418e-08
550.6	6.3478e-08
550.8	1.001e-07
551.0	8.6708e-08
551.2	9.1635e-08
551.4	8.7947e-08
551.6	3.3979e-08
551.8	3.9518e-08
552.0	3.3961e-08
552.2	9.7497e-08
552.4	4.1406e-08
552.6	1.1364e-07
552.8	6.9661e-08
553.0	6.7807e-08
553.2	6.773e-08
553.4	5.4073e-08
553.6	3.3767e-08
553.8	4.5317e-08
554.0	3.3603e-08
554.2	9.999e-08
554.4	3.3507e-08
554.6	1.3389e-07
554.8	7.9305e-08
555.0	3.3248e-08
555.2	6.462e-08
555.4	1.4811e-07
555.6	4.0767e-08
555.8	5.035e-08
556.0	3.8235e-08
556.2	6.5742e-08
556.4	3.286e-08
556.6	3.5049e-08
556.8	3.2827e-08
557.0	4.3728e-08
557.2	7.8115e-08
557.4	8.6337e-08
557.6	9.8442e-08
557.8	3.2825e-08
558.0	1.3316e-07
558.2	5.8443e-08
558.4	8.2234e-08
558.6	6.5749e-08
558.8	5.9203e-08
559.0	1.5339e-07
559.2	9.9233e-08
559.4	1.1584e-07
559.6	7.0187e-08
559.8	5.621e-08
560.0	1.6325e-07
560.2	4.8258e-08
560.4	4.7418e-08
560.6	4.2548e-08
560.8	4.7201e-08
561.0	6.1739e-08
561.2	1.0803e-07
561.4	1.6707e-07
561.6	4.369e-08
561.8	9.9192e-08
562.0	1.0105e-07
562.2	9.824e-08
562.4	1.5892e-07
562.6	2.0511e-07
562.8	7.7525e-08
563.0	1.2408e-07
563.2	1.5751e-07
563.4	9.7565e-08
563.6	2.0463e-07
563.8	8.9196e-08
564.0	1.5911e-07
564.2	1.1299e-07
564.4	3.3122e-08
564.6	5.0492e-08
564.8	9.7784e-08
565.0	1.3466e-07
565.2	9.732e-08
565.4	1.0008e-07
565.6	9.6046e-08
565.8	2.3254e-07
566.0	3.217e-08
566.2	5.0044e-08
566.4	1.2535e-07
566.6	9.5835e-08
566.8	1.0306e-07
567.0	1.0595e-07
567.2	3.1985e-08
567.4	9.6433e-08
567.6	1.2921e-07
567.8	1.9181e-07
568.0	1.4652e-07
568.2	1.8351e-07
568.4	1.4085e-07
568.6	1.7408e-07
568.8	2.5603e-07
569.0	2.2421e-07
569.2	3.7517e-07
569.4	3.8512e-07
569.6	4.3423e-07
569.8	6.1452e-07
570.0	6.4347e-07
570.2	7.5269e-07
570.4	1.349e-06
570.6	1.9628e-06
570.8	3.0689e-06
571.0	4.7487e-06
571.2	8.3581e-06
571.4	3.772e-05
571.6	6.5047e-05
571.8	1.0693e-04
572.0	2.1133e-04
572.2	4.6569e-04
572.4	0.00117
572.6	0.00309
572.8	0.01016
573.0	0.03032
573.2	0.10429
573.4	0.33199
573.6	0.6973
573.8	0.90526
574.0	0.95702
574.2	0.97528
574.4	0.98422
574.6	0.98641
574.8	0.98451
575.0	0.98324
575.2	0.98394
575.4	0.98599
575.6	0.98695
575.8	0.98709
576.0	0.98575
576.2	0.98429
576.4	0.98341
576.6	0.98297
576.8	0.98328
577.0	0.98387
577.2	0.98332
577.4	0.98241
577.6	0.98165
577.8	0.98009
578.0	0.97873
578.2	0.97858
578.4	0.97884
578.6	0.9793
578.8	0.98128
579.0	0.98337
579.2	0.98484
579.4	0.98572
579.6	0.98614
579.8	0.98656
580.0	0.98531
580.2	0.98476
580.4	0.98382
580.6	0.98343
580.8	0.98314
581.0	0.9825
581.2	0.98299
581.4	0.9835
581.6	0.98267
581.8	0.98433
582.0	0.98406
582.2	0.98383
582.4	0.98407
582.6	0.98304
582.8	0.98222
583.0	0.98207
583.2	0.98142
583.4	0.9812
583.6	0.98073
583.8	0.98073
584.0	0.98128
584.2	0.98154
584.4	0.98234
584.6	0.98283
584.8	0.98319
585.0	0.98345
585.2	0.98393
585.4	0.98439
585.6	0.9842
585.8	0.9833
586.0	0.98289
586.2	0.98264
586.4	0.98305
586.6	0.98232
586.8	0.98204
587.0	0.9818
587.2	0.98188
587.4	0.98144
587.6	0.9818
587.8	0.98248
588.0	0.98187
588.2	0.9824
588.4	0.98216
588.6	0.98219
588.8	0.98134
589.0	0.98114
589.2	0.98022
589.4	0.98012
589.6	0.97875
589.8	0.97977
590.0	0.97895
590.2	0.97843
590.4	0.97786
590.6	0.9787
590.8	0.97809
591.0	0.97744
591.2	0.97855
591.4	0.97869
591.6	0.9802
591.8	0.97996
592.0	0.98018
592.2	0.98098
592.4	0.97946
592.6	0.98097
592.8	0.98161
593.0	0.98089
593.2	0.98051
593.4	0.98098
593.6	0.98039
593.8	0.97917
594.0	0.97997
594.2	0.97985
594.4	0.98004
594.6	0.98023
594.8	0.98011
595.0	0.98026
595.2	0.97957
595.4	0.98054
595.6	0.98118
595.8	0.98135
596.0	0.98218
596.2	0.98224
596.4	0.98226
596.6	0.98224
596.8	0.98193
597.0	0.9816
597.2	0.9816
597.4	0.98165
597.6	0.98129
597.8	0.98061
598.0	0.97979
598.2	0.97967
598.4	0.97969
598.6	0.97943
598.8	0.97925
599.0	0.97926
599.2	0.97953
599.4	0.97966
599.6	0.97986
599.8	0.97989
600.0	0.98028
600.2	0.98072
600.4	0.98108
600.6	0.98238
600.8	0.98231
601.0	0.98232
601.2	0.98268
601.4	0.98307
601.6	0.98333
601.8	0.98286
602.0	0.98288
602.2	0.98291
602.4	0.98185
602.6	0.98185
602.8	0.98111
603.0	0.98096
603.2	0.98054
603.4	0.97983
603.6	0.97931
603.8	0.97986
604.0	0.97952
604.2	0.97995
604.4	0.98017
604.6	0.97987
604.8	0.98074
605.0	0.98075
605.2	0.98154
605.4	0.98174
605.6	0.9825
605.8	0.98265
606.0	0.98258
606.2	0.98298
606.4	0.98317
606.6	0.98364
606.8	0.98321
607.0	0.98282
607.2	0.98344
607.4	0.98283
607.6	0.98203
607.8	0.98137
608.0	0.98213
608.2	0.98136
608.4	0.98112
608.6	0.98092
608.8	0.98075
609.0	0.98107
609.2	0.98142
609.4	0.98252
609.6	0.98148
609.8	0.98208
610.0	0.98247
610.2	0.98301
610.4	0.98377
610.6	0.98436
610.8	0.98638
611.0	0.98565
611.2	0.98671
611.4	0.98673
611.6	0.98735
611.8	0.98745
612.0	0.98757
612.2	0.98966
612.4	0.98723
612.6	0.98757
612.8	0.9877
613.0	0.98706
613.2	0.98681
613.4	0.98602
613.6	0.98798
613.8	0.98494
614.0	0.98486
614.2	0.98458
614.4	0.98412
614.6	0.98407
614.8	0.98425
615.0	0.98529
615.2	0.98424
615.4	0.98435
615.6	0.985
615.8	0.98516
616.0	0.98549
616.2	0.98527
616.4	0.99045
616.6	0.98692
616.8	0.98691
617.0	0.98789
617.2	0.98782
617.4	0.98772
617.6	0.98798
617.8	0.99033
618.0	0.98797
618.2	0.98788
618.4	0.98759
618.6	0.98753
618.8	0.98704
619.0	0.98662
619.2	0.98855
619.4	0.98551
619.6	0.98534
619.8	0.98496
620.0	0.98493
620.2	0.98386
620.4	0.98383
620.6	0.98639
620.8	0.98396
621.0	0.98439
621.2	0.9836
621.4	0.98357
621.6	0.98334
621.8	0.98355
622.0	0.9855
622.2	0.98387
622.4	0.98474
622.6	0.98478
622.8	0.98579
623.0	0.98554
623.2	0.98603
623.4	0.98699
623.6	0.98664
623.8	0.98606
624.0	0.98648
624.2	0.98644
624.4	0.98626
624.6	0.9864
624.8	0.98624
625.0	0.98585
625.2	0.98576
625.4	0.98526
625.6	0.98551
625.8	0.98517
626.0	0.98526
626.2	0.98474
626.4	0.98468
626.6	0.98464
626.8	0.98423
627.0	0.98435
627.2	0.98438
627.4	0.98511
627.6	0.9854
627.8	0.98627
628.0	0.98566
628.2	0.98651
628.4	0.98649
628.6	0.98687
628.8	0.98736
629.0	0.9877
629.2	0.98823
629.4	0.98864
629.6	0.98884
629.8	0.98877
630.0	0.98855
630.2	0.989
630.4	0.9887
630.6	0.98831
630.8	0.98859
631.0	0.98827
631.2	0.98801
631.4	0.9876
631.6	0.98724
631.8	0.98689
632.0	0.98666
632.2	0.98608
632.4	0.98603
632.6	0.98598
632.8	0.98598
633.0	0.98586
633.2	0.98514
633.4	0.98537
633.6	0.98553
633.8	0.9854
634.0	0.98562
634.2	0.98605
634.4	0.98625
634.6	0.98636
634.8	0.98743
635.0	0.98743
635.2	0.98807
635.4	0.9887
635.6	0.98885
635.8	0.98899
636.0	0.98901
636.2	0.98968
636.4	0.98974
636.6	0.9898
636.8	0.98996
637.0	0.98945
637.2	0.98995
637.4	0.98964
637.6	0.98953
637.8	0.98932
638.0	0.98877
638.2	0.98882
638.4	0.9892
638.6	0.98892
638.8	0.98857
639.0	0.98846
639.2	0.98798
639.4	0.98747
639.6	0.98787
639.8	0.98802
640.0	0.98798
640.2	0.98853
640.4	0.98855
640.6	0.98878
640.8	0.9893
641.0	0.98962
641.2	0.98946
641.4	0.99008
641.6	0.99062
641.8	0.99134
642.0	0.99128
642.2	0.99241
642.4	0.993
642.6	0.99314
642.8	0.9932
643.0	0.99334
643.2	0.99442
643.4	0.99365
643.6	0.99351
643.8	0.99348
644.0	0.99321
644.2	0.99345
644.4	0.99304
644.6	0.9933
644.8	0.99243
645.0	0.99224
645.2	0.99161
645.4	0.99085
645.6	0.99093
645.8	0.99097
646.0	0.99
646.2	0.98926
646.4	0.98898
646.6	0.98848
646.8	0.98866
647.0	0.98787
647.2	0.98752
647.4	0.98748
647.6	0.98745
647.8	0.98758
648.0	0.98737
648.2	0.9874
648.4	0.98759
648.6	0.98761
648.8	0.98688
649.0	0.98771
649.2	0.98854
649.4	0.98865
649.6	0.989
649.8	0.98896
650.0	0.98898
650.2	0.98919
650.4	0.98934
650.6	0.98955
650.8	0.98986
651.0	0.98984
651.2	0.98983
651.4	0.99028
651.6	0.99012
651.8	0.99
652.0	0.98983
652.2	0.98963
652.4	0.9891
652.6	0.98967
652.8	0.98959
653.0	0.9891
653.2	0.98943
653.4	0.98891
653.6	0.98891
653.8	0.98867
654.0	0.9886
654.2	0.98919
654.4	0.98946
654.6	0.98885
654.8	0.98913
655.0	0.98914
655.2	0.98949
655.4	0.9893
655.6	0.98953
655.8	0.99007
656.0	0.98963
656.2	0.98968
656.4	0.99005
656.6	0.98965
656.8	0.99017
657.0	0.99054
657.2	0.9906
657.4	0.99047
657.6	0.98996
657.8	0.99001
658.0	0.99038
658.2	0.99019
658.4	0.99031
658.6	0.99022
658.8	0.99039
659.0	0.99029
659.2	0.99033
659.4	0.99004
659.6	0.98969
659.8	0.98984
660.0	0.98999
660.2	0.9905
660.4	0.9903
660.6	0.9901
660.8	0.99033
661.0	0.99019
661.2	0.99022
661.4	0.99031
661.6	0.99083
661.8	0.99099
662.0	0.99077
662.2	0.99101
662.4	0.99112
662.6	0.99112
662.8	0.99144
663.0	0.99198
663.2	0.99195
663.4	0.9926
663.6	0.99265
663.8	0.99273
664.0	0.99325
664.2	0.9932
664.4	0.99341
664.6	0.99321
664.8	0.99244
665.0	0.99286
665.2	0.99286
665.4	0.99335
665.6	0.99291
665.8	0.99247
666.0	0.99188
666.2	0.99199
666.4	0.99178
666.6	0.99154
666.8	0.99088
667.0	0.99043
667.2	0.99036
667.4	0.99057
667.6	0.98999
667.8	0.98984
668.0	0.98988
668.2	0.98935
668.4	0.98941
668.6	0.98858
668.8	0.98841
669.0	0.98809
669.2	0.98863
669.4	0.98877
669.6	0.98879
669.8	0.98926
670.0	0.98912
670.2	0.98866
670.4	0.98902
670.6	0.98953
670.8	0.99005
671.0	0.99049
671.2	0.99058
671.4	0.99107
671.6	0.99186
671.8	0.99186
672.0	0.99201
672.2	0.99225
672.4	0.99328
672.6	0.99354
672.8	0.99331
673.0	0.99387
673.2	0.9939
673.4	0.99395
673.6	0.99396
673.8	0.99396
674.0	0.99355
674.2	0.99471
674.4	0.99504
674.6	0.9944
674.8	0.99451
675.0	0.99404
675.2	0.99393
675.4	0.99395
675.6	0.99393
675.8	0.99337
676.0	0.99364
676.2	0.99295
676.4	0.99274
676.6	0.99317
676.8	0.99294
677.0	0.9924
677.2	0.99286
677.4	0.99224
677.6	0.99249
677.8	0.99256
678.0	0.99284
678.2	0.99275
678.4	0.9929
678.6	0.99313
678.8	0.99335
679.0	0.99399
679.2	0.994
679.4	0.99428
679.6	0.99465
679.8	0.99479
680.0	0.99489
680.2	0.99558
680.4	0.99591
680.6	0.99617
680.8	0.9959
681.0	0.99626
681.2	0.99623
681.4	0.99617
681.6	0.99596
681.8	0.996
682.0	0.99575
682.2	0.9961
682.4	0.9955
682.6	0.99517
682.8	0.99529
683.0	0.99489
683.2	0.99495
683.4	0.99456
683.6	0.99405
683.8	0.99373
684.0	0.99419
684.2	0.99369
684.4	0.99342
684.6	0.9929
684.8	0.99318
685.0	0.99276
685.2	0.99255
685.4	0.99323
685.6	0.99312
685.8	0.9924
686.0	0.99275
686.2	0.99273
686.4	0.99313
686.6	0.99273
686.8	0.99336
687.0	0.99326
687.2	0.99354
687.4	0.99392
687.6	0.99435
687.8	0.99542
688.0	0.99513
688.2	0.99577
688.4	0.99602
688.6	0.99626
688.8	0.99703
689.0	0.99735
689.2	0.99826
689.4	0.99825
689.6	0.99806
689.8	0.99865
690.0	0.99859
690.2	0.99892
690.4	0.9988
690.6	0.99901
690.8	0.9988
691.0	0.9985
691.2	0.99838
691.4	0.99784
691.6	0.99812
691.8	0.99772
692.0	0.99734
692.2	0.99734
692.4	0.99685
692.6	0.99669
692.8	0.99608
693.0	0.99568
693.2	0.99525
693.4	0.99473
693.6	0.99431
693.8	0.99398
694.0	0.99447
694.2	0.99347
694.4	0.99298
694.6	0.99299
694.8	0.99248
695.0	0.99222
695.2	0.99197
695.4	0.99184
695.6	0.9917
695.8	0.99203
696.0	0.99172
696.2	0.99178
696.4	0.99171
696.6	0.99196
696.8	0.99229
697.0	0.99227
697.2	0.99232
697.4	0.99244
697.6	0.99288
697.8	0.99262
698.0	0.99272
698.2	0.99302
698.4	0.99366
698.6	0.99371
698.8	0.99354
699.0	0.99382
699.2	0.99364
699.4	0.99393
699.6	0.99392
699.8	0.99414
700.0	0.99361
700.2	0.99394
700.4	0.9936
700.6	0.99341
700.8	0.99319
701.0	0.9937
701.2	0.99353
701.4	0.99335
701.6	0.99335
701.8	0.99345
702.0	0.99364
702.2	0.99325
702.4	0.9932
702.6	0.99287
702.8	0.99295
703.0	0.99283
703.2	0.99267
703.4	0.99303
703.6	0.99269
703.8	0.9925
704.0	0.99235
704.2	0.99241
704.4	0.99254
704.6	0.99245
704.8	0.99235
705.0	0.9922
705.2	0.99238
705.4	0.99204
705.6	0.99224
705.8	0.99244
706.0	0.99232
706.2	0.99229
706.4	0.99172
706.6	0.99238
706.8	0.9923
707.0	0.9921
707.2	0.99209
707.4	0.99269
707.6	0.9924
707.8	0.99214
708.0	0.99205
708.2	0.99217
708.4	0.9917
708.6	0.99182
708.8	0.99198
709.0	0.99177
709.2	0.9916
709.4	0.99107
709.6	0.99121
709.8	0.99124
710.0	0.99082
710.2	0.99089
710.4	0.99113
710.6	0.991
710.8	0.99056
711.0	0.99055
711.2	0.99114
711.4	0.99071
711.6	0.99063
711.8	0.99104
712.0	0.99084
712.2	0.99074
712.4	0.99097
712.6	0.99093
712.8	0.99129
713.0	0.99115
713.2	0.99163
713.4	0.99147
713.6	0.99175
713.8	0.99257
714.0	0.99278
714.2	0.99291
714.4	0.99273
714.6	0.99298
714.8	0.99351
715.0	0.99357
715.2	0.99394
715.4	0.9941
715.6	0.99469
715.8	0.99478
716.0	0.9949
716.2	0.99526
716.4	0.99517
716.6	0.99525
716.8	0.9951
717.0	0.99521
717.2	0.99517
717.4	0.99509
717.6	0.99507
717.8	0.99531
718.0	0.99487
718.2	0.9949
718.4	0.99469
718.6	0.99476
718.8	0.99445
719.0	0.99428
719.2	0.99393
719.4	0.9936
719.6	0.99365
719.8	0.99363
720.0	0.99287
720.2	0.99275
720.4	0.99209
720.6	0.99258
720.8	0.99239
721.0	0.99193
721.2	0.99155
721.4	0.99149
721.6	0.99176
721.8	0.99158
722.0	0.9917
722.2	0.99154
722.4	0.99131
722.6	0.99136
722.8	0.99106
723.0	0.99159
723.2	0.99164
723.4	0.99193
723.6	0.99234
723.8	0.99215
724.0	0.99216
724.2	0.99231
724.4	0.99244
724.6	0.99256
724.8	0.99257
725.0	0.99302
725.2	0.9931
725.4	0.99369
725.6	0.99433
725.8	0.9942
726.0	0.99443
726.2	0.99457
726.4	0.9941
726.6	0.9945
726.8	0.99473
727.0	0.99502
727.2	0.9949
727.4	0.99457
727.6	0.995
727.8	0.99477
728.0	0.9947
728.2	0.99456
728.4	0.9944
728.6	0.99466
728.8	0.99439
729.0	0.99424
729.2	0.99397
729.4	0.9937
729.6	0.99357
729.8	0.99268
730.0	0.99305
730.2	0.99302
730.4	0.99266
730.6	0.99243
730.8	0.99188
731.0	0.99237
731.2	0.9919
731.4	0.99182
731.6	0.99154
731.8	0.99163
732.0	0.99192
732.2	0.99204
732.4	0.99172
732.6	0.99161
732.8	0.99135
733.0	0.99153
733.2	0.99227
733.4	0.99241
733.6	0.99255
733.8	0.99216
734.0	0.99233
734.2	0.99257
734.4	0.99265
734.6	0.99287
734.8	0.99322
735.0	0.99346
735.2	0.99367
735.4	0.99391
735.6	0.99408
735.8	0.99448
736.0	0.99476
736.2	0.99459
736.4	0.99519
736.6	0.99481
736.8	0.99551
737.0	0.99563
737.2	0.99527
737.4	0.99528
737.6	0.99542
737.8	0.99547
738.0	0.99516
738.2	0.99531
738.4	0.99471
738.6	0.99513
738.8	0.99476
739.0	0.99466
739.2	0.99389
739.4	0.99395
739.6	0.99359
739.8	0.99313
740.0	0.99362
740.2	0.9926
740.4	0.99224
740.6	0.99247
740.8	0.99213
741.0	0.99239
741.2	0.99216
741.4	0.9911
741.6	0.99083
741.8	0.99134
742.0	0.99091
742.2	0.99053
742.4	0.99045
742.6	0.99017
742.8	0.99074
743.0	0.99038
743.2	0.99067
743.4	0.99081
743.6	0.99072
743.8	0.99122
744.0	0.99077
744.2	0.99105
744.4	0.99089
744.6	0.99111
744.8	0.99145
745.0	0.99111
745.2	0.9914
745.4	0.99157
745.6	0.9906
745.8	0.9913
746.0	0.99183
746.2	0.99193
746.4	0.99163
746.6	0.99157
746.8	0.99212
747.0	0.99236
747.2	0.99269
747.4	0.99177
747.6	0.99136
747.8	0.99217
748.0	0.99273
748.2	0.99234
748.4	0.99192
748.6	0.99197
748.8	0.99243
749.0	0.99176
749.2	0.99197
749.4	0.99204
749.6	0.99117
749.8	0.99125
750.0	0.99053
750.2	0.99052
750.4	0.99094
750.6	0.99105
750.8	0.99063
751.0	0.9904
751.2	0.99049
751.4	0.99047
751.6	0.98959
751.8	0.99067
752.0	0.99059
752.2	0.98997
752.4	0.98934
752.6	0.99006
752.8	0.99012
753.0	0.99047
753.2	0.98984
753.4	0.99062
753.6	0.99126
753.8	0.99131
754.0	0.99141
754.2	0.99093
754.4	0.99118
754.6	0.99185
754.8	0.99195
755.0	0.99236
755.2	0.9931
755.4	0.99309
755.6	0.99338
755.8	0.99307
756.0	0.99391
756.2	0.99393
756.4	0.99419
756.6	0.99442
756.8	0.99511
757.0	0.99546
757.2	0.99529
757.4	0.99597
757.6	0.99571
757.8	0.99571
758.0	0.99619
758.2	0.99628
758.4	0.9964
758.6	0.99619
758.8	0.99701
759.0	0.99714
759.2	0.99662
759.4	0.99684
759.6	0.99635
759.8	0.99664
760.0	0.99584
760.2	0.99691
760.4	0.9967
760.6	0.99625
760.8	0.99636
761.0	0.99619
761.2	0.9959
761.4	0.99559
761.6	0.99525
761.8	0.99462
762.0	0.99437
762.2	0.9942
762.4	0.99417
762.6	0.99328
762.8	0.99367
763.0	0.99393
763.2	0.99296
763.4	0.99345
763.6	0.99347
763.8	0.99262
764.0	0.9939
764.2	0.99201
764.4	0.9939
764.6	0.99316
764.8	0.9933
765.0	0.99275
765.2	0.99262
765.4	0.9935
765.6	0.99321
765.8	0.9929
766.0	0.99404
766.2	0.99297
766.4	0.99308
766.6	0.99426
766.8	0.99392
767.0	0.99413
767.2	0.99445
767.4	0.99478
767.6	0.99482
767.8	0.99502
768.0	0.99518
768.2	0.99556
768.4	0.99595
768.6	0.99599
768.8	0.99603
769.0	0.99639
769.2	0.99604
769.4	0.99601
769.6	0.9959
769.8	0.99653
770.0	0.996
770.2	0.99625
770.4	0.99664
770.6	0.99692
770.8	0.9959
771.0	0.99599
771.2	0.99655
771.4	0.99634
771.6	0.99584
771.8	0.9957
772.0	0.99526
772.2	0.9952
772.4	0.99451
772.6	0.99378
772.8	0.99321
773.0	0.99365
773.2	0.99354
773.4	0.9928
773.6	0.99225
773.8	0.99234
774.0	0.9922
774.2	0.9923
774.4	0.99206
774.6	0.99223
774.8	0.99076
775.0	0.99043
775.2	0.99065
775.4	0.99069
775.6	0.99026
775.8	0.99056
776.0	0.99019
776.2	0.98919
776.4	0.98965
776.6	0.99015
776.8	0.99022
777.0	0.9905
777.2	0.98951
777.4	0.99027
777.6	0.98998
777.8	0.99007
778.0	0.99011
778.2	0.99041
778.4	0.99035
778.6	0.99047
778.8	0.99056
779.0	0.99051
779.2	0.99074
779.4	0.99113
779.6	0.99152
779.8	0.99096
780.0	0.9915
780.2	0.99183
780.4	0.992
780.6	0.99201
780.8	0.99228
781.0	0.99173
781.2	0.99219
781.4	0.99228
781.6	0.99199
781.8	0.99194
782.0	0.99213
782.2	0.9926
782.4	0.99183
782.6	0.99297
782.8	0.99274
783.0	0.99236
783.2	0.99176
783.4	0.99195
783.6	0.99227
783.8	0.99215
784.0	0.9919
784.2	0.99187
784.4	0.99189
784.6	0.99141
784.8	0.99131
785.0	0.99148
785.2	0.99104
785.4	0.99152
785.6	0.99127
785.8	0.99097
786.0	0.99054
786.2	0.99105
786.4	0.99031
786.6	0.99041
786.8	0.99061
787.0	0.99
787.2	0.99095
787.4	0.99056
787.6	0.9904
787.8	0.99039
788.0	0.9905
788.2	0.9904
788.4	0.99082
788.6	0.99068
788.8	0.99079
789.0	0.99057
789.2	0.99099
789.4	0.99021
789.6	0.99139
789.8	0.99173
790.0	0.99084
790.2	0.99098
790.4	0.9918
790.6	0.99203
790.8	0.99234
791.0	0.99201
791.2	0.99253
791.4	0.99269
791.6	0.99386
791.8	0.99343
792.0	0.99303
792.2	0.99368
792.4	0.99482
792.6	0.99429
792.8	0.99412
793.0	0.99474
793.2	0.99485
793.4	0.99471
793.6	0.99567
793.8	0.99482
794.0	0.99451
794.2	0.99554
794.4	0.99495
794.6	0.99467
794.8	0.99493
795.0	0.99462
795.2	0.99518
795.4	0.99479
795.6	0.99444
795.8	0.99412
796.0	0.9945
796.2	0.99397
796.4	0.99329
796.6	0.99387
796.8	0.99411
797.0	0.99324
797.2	0.99298
797.4	0.99267
797.6	0.99233
797.8	0.99185
798.0	0.99156
798.2	0.99254
798.4	0.99105
798.6	0.99033
798.8	0.99081
799.0	0.99117
799.2	0.99148
799.4	0.99069
799.6	0.99031
799.8	0.9905
800.0	0.98982
800.2	0.98989
800.4	0.9901
800.6	0.99001
800.8	0.99028
801.0	0.99002
801.2	0.98946
801.4	0.98952
801.6	0.98921
801.8	0.98911
802.0	0.98983
802.2	0.9895
802.4	0.98949
802.6	0.98966
802.8	0.9896
803.0	0.98997
803.2	0.99029
803.4	0.98927
803.6	0.98981
803.8	0.9898
804.0	0.98969
804.2	0.98987
804.4	0.99027
804.6	0.99048
804.8	0.99094
805.0	0.99064
805.2	0.99043
805.4	0.99027
805.6	0.99039
805.8	0.99129
806.0	0.99116
806.2	0.9903
806.4	0.99138
806.6	0.99182
806.8	0.99089
807.0	0.99055
807.2	0.99151
807.4	0.99116
807.6	0.99051
807.8	0.99111
808.0	0.99115
808.2	0.99082
808.4	0.99145
808.6	0.99098
808.8	0.99145
809.0	0.99104
809.2	0.99095
809.4	0.9903
809.6	0.99052
809.8	0.99069
810.0	0.99011
810.2	0.98964
810.4	0.9901
810.6	0.99058
810.8	0.99039
811.0	0.98955
811.2	0.98918
811.4	0.98973
811.6	0.99001
811.8	0.99006
812.0	0.99
812.2	0.99023
812.4	0.98987
812.6	0.99045
812.8	0.98999
813.0	0.98992
813.2	0.99085
813.4	0.99078
813.6	0.99167
813.8	0.99131
814.0	0.99088
814.2	0.99137
814.4	0.99198
814.6	0.99221
814.8	0.99206
815.0	0.99205
815.2	0.99275
815.4	0.99274
815.6	0.99373
815.8	0.99332
816.0	0.99398
816.2	0.99389
816.4	0.99415
816.6	0.99474
816.8	0.9952
817.0	0.99511
817.2	0.99641
817.4	0.99558
817.6	0.99548
817.8	0.99565
818.0	0.9964
818.2	0.9968
818.4	0.9971
818.6	0.99714
818.8	0.99692
819.0	0.99748
819.2	0.99771
819.4	0.99675
819.6	0.99754
819.8	0.9971
820.0	0.99724
820.2	0.9975
820.4	0.99736
820.6	0.99669
820.8	0.99644
821.0	0.99746
821.2	0.99704
821.4	0.99641
821.6	0.99699
821.8	0.99674
822.0	0.99652
822.2	0.99647
822.4	0.99632
822.6	0.99614
822.8	0.99555
823.0	0.99551
823.2	0.99509
823.4	0.99534
823.6	0.99481
823.8	0.9948
824.0	0.99428
824.2	0.99436
824.4	0.9944
824.6	0.99415
824.8	0.99351
825.0	0.99282
825.2	0.99259
825.4	0.99272
825.6	0.99184
825.8	0.99264
826.0	0.99181
826.2	0.9924
826.4	0.99214
826.6	0.99212
826.8	0.99148
827.0	0.99229
827.2	0.99179
827.4	0.9908
827.6	0.99145
827.8	0.99234
828.0	0.99221
828.2	0.9917
828.4	0.9922
828.6	0.99194
828.8	0.9916
829.0	0.99165
829.2	0.99198
829.4	0.99158
829.6	0.99212
829.8	0.99285
830.0	0.99277
830.2	0.99218
830.4	0.99188
830.6	0.99272
830.8	0.99338
831.0	0.99327
831.2	0.99269
831.4	0.9932
831.6	0.99292
831.8	0.99303
832.0	0.99349
832.2	0.99393
832.4	0.99349
832.6	0.99297
832.8	0.99259
833.0	0.99306
833.2	0.99318
833.4	0.99346
833.6	0.99394
833.8	0.99409
834.0	0.99368
834.2	0.99379
834.4	0.99337
834.6	0.99369
834.8	0.99333
835.0	0.99372
835.2	0.99337
835.4	0.99317
835.6	0.99225
835.8	0.99272
836.0	0.99291
836.2	0.99176
836.4	0.99319
836.6	0.99255
836.8	0.99241
837.0	0.9913
837.2	0.99198
837.4	0.99193
837.6	0.99128
837.8	0.99133
838.0	0.99175
838.2	0.99085
838.4	0.99176
838.6	0.99158
838.8	0.99096
839.0	0.9905
839.2	0.99118
839.4	0.99109
839.6	0.99094
839.8	0.99166
840.0	0.99089
840.2	0.99027
840.4	0.99145
840.6	0.99112
840.8	0.99104
841.0	0.99159
841.2	0.99125
841.4	0.99101
841.6	0.99152
841.8	0.99185
842.0	0.99166
842.2	0.99186
842.4	0.99225
842.6	0.99256
842.8	0.99221
843.0	0.99258
843.2	0.99262
843.4	0.99251
843.6	0.99368
843.8	0.994
844.0	0.99359
844.2	0.99449
844.4	0.99377
844.6	0.99409
844.8	0.99372
845.0	0.9948
845.2	0.99509
845.4	0.99512
845.6	0.99512
845.8	0.99409
846.0	0.99522
846.2	0.99557
846.4	0.99471
846.6	0.99549
846.8	0.99543
847.0	0.99562
847.2	0.9963
847.4	0.99602
847.6	0.99602
847.8	0.99584
848.0	0.995
848.2	0.99599
848.4	0.99556
848.6	0.99421
848.8	0.99518
849.0	0.9947
849.2	0.99456
849.4	0.99451
849.6	0.99459
849.8	0.99426
850.0	0.99429
850.2	0.99495
850.4	0.99402
850.6	0.9938
850.8	0.99331
851.0	0.99363
851.2	0.99262
851.4	0.9929
851.6	0.99302
851.8	0.99312
852.0	0.99229
852.2	0.99254
852.4	0.99204
852.6	0.99203
852.8	0.99173
853.0	0.99129
853.2	0.99128
853.4	0.99161
853.6	0.99153
853.8	0.99124
854.0	0.99056
854.2	0.98997
854.4	0.99065
854.6	0.99024
854.8	0.99016
855.0	0.99057
855.2	0.99065
855.4	0.99115
855.6	0.99026
855.8	0.99026
856.0	0.9912
856.2	0.99116
856.4	0.9905
856.6	0.99062
856.8	0.9904
857.0	0.99066
857.2	0.99148
857.4	0.99111
857.6	0.99165
857.8	0.99156
858.0	0.99142
858.2	0.9917
858.4	0.99119
858.6	0.99092
858.8	0.9917
859.0	0.99257
859.2	0.99139
859.4	0.99162
859.6	0.99275
859.8	0.99265
860.0	0.99279
860.2	0.99268
860.4	0.99359
860.6	0.99305
860.8	0.99266
861.0	0.99254
861.2	0.99287
861.4	0.99268
861.6	0.99276
861.8	0.99397
862.0	0.99297
862.2	0.99334
862.4	0.99336
862.6	0.99345
862.8	0.99429
863.0	0.9932
863.2	0.99321
863.4	0.99336
863.6	0.99302
863.8	0.99257
864.0	0.99292
864.2	0.99227
864.4	0.99224
864.6	0.99241
864.8	0.99183
865.0	0.99213
865.2	0.99177
865.4	0.99164
865.6	0.9917
865.8	0.99255
866.0	0.99134
866.2	0.99148
866.4	0.99084
866.6	0.99103
866.8	0.991
867.0	0.99064
867.2	0.99039
867.4	0.99073
867.6	0.99066
867.8	0.99067
868.0	0.99063
868.2	0.99065
868.4	0.99061
868.6	0.99026
868.8	0.98976
869.0	0.99009
869.2	0.9897
869.4	0.98998
869.6	0.98955
869.8	0.98969
870.0	0.99005
870.2	0.9898
870.4	0.9896
870.6	0.98935
870.8	0.98968
871.0	0.9909
871.2	0.99043
871.4	0.99022
871.6	0.99053
871.8	0.99059
872.0	0.99086
872.2	0.99106
872.4	0.99134
872.6	0.99134
872.8	0.99136
873.0	0.99151
873.2	0.99186
873.4	0.992
873.6	0.99167
873.8	0.99162
874.0	0.99201
874.2	0.99237
874.4	0.9924
874.6	0.99241
874.8	0.99261
875.0	0.99228
875.2	0.99181
875.4	0.9926
875.6	0.9925
875.8	0.99288
876.0	0.99257
876.2	0.99253
876.4	0.99253
876.6	0.99264
876.8	0.99266
877.0	0.99239
877.2	0.9926
877.4	0.99241
877.6	0.99334
877.8	0.99277
878.0	0.99245
878.2	0.99256
878.4	0.9924
878.6	0.99222
878.8	0.99271
879.0	0.99201
879.2	0.99161
879.4	0.99207
879.6	0.9921
879.8	0.99249
880.0	0.99216
880.2	0.99156
880.4	0.99133
880.6	0.99122
880.8	0.99183
881.0	0.99138
881.2	0.99108
881.4	0.99076
881.6	0.99022
881.8	0.98991
882.0	0.99023
882.2	0.99017
882.4	0.98926
882.6	0.99003
882.8	0.98987
883.0	0.98937
883.2	0.98972
883.4	0.98934
883.6	0.98952
883.8	0.98946
884.0	0.99021
884.2	0.98974
884.4	0.98922
884.6	0.98892
884.8	0.99014
885.0	0.98943
885.2	0.99017
885.4	0.99022
885.6	0.9895
885.8	0.99016
886.0	0.99044
886.2	0.99033
886.4	0.99053
886.6	0.9908
886.8	0.99039
887.0	0.98996
887.2	0.99071
887.4	0.99036
887.6	0.99042
887.8	0.99122
888.0	0.99191
888.2	0.99153
888.4	0.99172
888.6	0.9916
888.8	0.99187
889.0	0.99209
889.2	0.99272
889.4	0.99257
889.6	0.99189
889.8	0.99233
890.0	0.99284
890.2	0.99252
890.4	0.99263
890.6	0.99279
890.8	0.99289
891.0	0.99322
891.2	0.99303
891.4	0.9934
891.6	0.99291
891.8	0.99315
892.0	0.99348
892.2	0.99326
892.4	0.99305
892.6	0.99326
892.8	0.99304
893.0	0.99378
893.2	0.99247
893.4	0.99224
893.6	0.99233
893.8	0.99307
894.0	0.9929
894.2	0.99207
894.4	0.992
894.6	0.99257
894.8	0.99287
895.0	0.9922
895.2	0.99199
895.4	0.99248
895.6	0.99142
895.8	0.99089
896.0	0.99112
896.2	0.99073
896.4	0.99115
896.6	0.99125
896.8	0.9905
897.0	0.99013
897.2	0.99123
897.4	0.9907
897.6	0.98986
897.8	0.99127
898.0	0.99039
898.2	0.98919
898.4	0.98964
898.6	0.99037
898.8	0.99007
899.0	0.98966
899.2	0.99087
899.4	0.98897
899.6	0.9891
899.8	0.98908
900.0	0.98964
900.2	0.98937
900.4	0.99021
900.6	0.98929
900.8	0.98945
901.0	0.98948
901.2	0.99014
901.4	0.98938
901.6	0.99037
901.8	0.98966
902.0	0.98902
902.2	0.98945
902.4	0.9896
902.6	0.99064
902.8	0.99032
903.0	0.99018
903.2	0.98989
903.4	0.99028
903.6	0.99007
903.8	0.99022
904.0	0.9906
904.2	0.99131
904.4	0.99161
904.6	0.99134
904.8	0.99167
905.0	0.99233
905.2	0.99186
905.4	0.99191
905.6	0.99245
905.8	0.99192
906.0	0.99178
906.2	0.99202
906.4	0.99197
906.6	0.99219
906.8	0.99358
907.0	0.99324
907.2	0.99395
907.4	0.99296
907.6	0.9929
907.8	0.99304
908.0	0.99351
908.2	0.99326
908.4	0.99267
908.6	0.99366
908.8	0.99227
909.0	0.99265
909.2	0.99283
909.4	0.99297
909.6	0.99334
909.8	0.9923
910.0	0.99332
910.2	0.99247
910.4	0.99296
910.6	0.99319
910.8	0.99228
911.0	0.99196
911.2	0.9923
911.4	0.99164
911.6	0.99185
911.8	0.99225
912.0	0.99189
912.2	0.9913
912.4	0.99132
912.6	0.99054
912.8	0.99044
913.0	0.99106
913.2	0.9906
913.4	0.99119
913.6	0.99068
913.8	0.98983
914.0	0.98926
914.2	0.99048
914.4	0.98944
914.6	0.98965
914.8	0.9899
915.0	0.99022
915.2	0.99012
915.4	0.98946
915.6	0.98894
915.8	0.98901
916.0	0.98866
916.2	0.98864
916.4	0.98863
916.6	0.98806
916.8	0.98898
917.0	0.99006
917.2	0.98969
917.4	0.98893
917.6	0.9883
917.8	0.98849
918.0	0.98958
918.2	0.98931
918.4	0.98914
918.6	0.9894
918.8	0.98941
919.0	0.99001
919.2	0.98978
919.4	0.99065
919.6	0.99173
919.8	0.99069
920.0	0.99051
920.2	0.99035
920.4	0.99082
920.6	0.99058
920.8	0.99071
921.0	0.99109
921.2	0.99069
921.4	0.99115
921.6	0.99079
921.8	0.99173
922.0	0.99179
922.2	0.99219
922.4	0.99225
922.6	0.99307
922.8	0.99332
923.0	0.99304
923.2	0.99385
923.4	0.99348
923.6	0.99391
923.8	0.9941
924.0	0.99306
924.2	0.99355
924.4	0.99359
924.6	0.99269
924.8	0.99348
925.0	0.99425
925.2	0.99448
925.4	0.99433
925.6	0.99419
925.8	0.99333
926.0	0.99441
926.2	0.99394
926.4	0.99386
926.6	0.99407
926.8	0.99279
927.0	0.9931
927.2	0.99334
927.4	0.99341
927.6	0.99335
927.8	0.99411
928.0	0.99324
928.2	0.99278
928.4	0.99299
928.6	0.99212
928.8	0.99208
929.0	0.99196
929.2	0.9916
929.4	0.9923
929.6	0.99093
929.8	0.9911
930.0	0.99125
930.2	0.99099
930.4	0.99085
930.6	0.99018
930.8	0.9913
931.0	0.9902
931.2	0.99031
931.4	0.99111
931.6	0.99335
931.8	0.98839
932.0	0.98859
932.2	0.98912
932.4	0.99022
932.6	0.98896
932.8	0.98805
933.0	0.98889
933.2	0.98966
933.4	0.9896
933.6	0.98728
933.8	0.9896
934.0	0.98889
934.2	0.99102
934.4	0.98943
934.6	0.98586
934.8	0.9864
935.0	0.98832
935.2	0.98915
935.4	0.99132
935.6	0.98538
935.8	0.98961
936.0	0.98668
936.2	0.98908
936.4	0.98921
936.6	0.99014
936.8	0.9892
937.0	0.99023
937.2	0.98815
937.4	0.98612
937.6	0.98978
937.8	0.98988
938.0	0.98996
938.2	0.9882
938.4	0.98826
938.6	0.99127
938.8	0.98946
939.0	0.98936
939.2	0.98968
939.4	0.99053
939.6	0.99022
939.8	0.99045
940.0	0.98957
940.2	0.98976
940.4	0.98986
940.6	0.99045
940.8	0.99092
941.0	0.99026
941.2	0.98976
941.4	0.9893
941.6	0.98958
941.8	0.98992
942.0	0.98982
942.2	0.98961
942.4	0.99214
942.6	0.99112
942.8	0.98858
943.0	0.9897
943.2	0.99031
943.4	0.98996
943.6	0.99055
943.8	0.99231
944.0	0.98839
944.2	0.98932
944.4	0.99082
944.6	0.99017
944.8	0.99007
945.0	0.98982
945.2	0.99035
945.4	0.98935
945.6	0.98866
945.8	0.99123
946.0	0.98808
946.2	0.98977
946.4	0.98935
946.6	0.98974
946.8	0.98902
947.0	0.98783
947.2	0.98883
947.4	0.98843
947.6	0.98949
947.8	0.98946
948.0	0.98844
948.2	0.98683
948.4	0.98781
948.6	0.98756
948.8	0.98753
949.0	0.98701
949.2	0.98906
949.4	0.98571
949.6	0.98609
949.8	0.98839
950.0	0.98548
950.2	0.9868
950.4	0.98737
950.6	0.98692
950.8	0.98689
951.0	0.98676
951.2	0.98687
951.4	0.98813
951.6	0.98721
951.8	0.98611
952.0	0.98778
952.2	0.9862
952.4	0.98675
952.6	0.9881
952.8	0.98665
953.0	0.98688
953.2	0.98795
953.4	0.98803
953.6	0.98746
953.8	0.98751
954.0	0.98755
954.2	0.98847
954.4	0.98685
954.6	0.98747
954.8	0.98726
955.0	0.98825
955.2	0.98821
955.4	0.98756
955.6	0.98733
955.8	0.98821
956.0	0.98847
956.2	0.98838
956.4	0.9887
956.6	0.98771
956.8	0.98879
957.0	0.98847
957.2	0.98831
957.4	0.98908
957.6	0.98936
957.8	0.99001
958.0	0.98901
958.2	0.98939
958.4	0.98985
958.6	0.98977
958.8	0.98986
959.0	0.98983
959.2	0.99043
959.4	0.99089
959.6	0.99061
959.8	0.99123
960.0	0.99077
960.2	0.99147
960.4	0.99129
960.6	0.98933
960.8	0.99007
961.0	0.99036
961.2	0.99124
961.4	0.99061
961.6	0.99124
961.8	0.99117
962.0	0.98996
962.2	0.99054
962.4	0.99067
962.6	0.98982
962.8	0.99063
963.0	0.98971
963.2	0.99015
963.4	0.99004
963.6	0.98976
963.8	0.98997
964.0	0.99032
964.2	0.98962
964.4	0.98969
964.6	0.98915
964.8	0.98903
965.0	0.98978
965.2	0.98889
965.4	0.98778
965.6	0.98805
965.8	0.98847
966.0	0.98889
966.2	0.98871
966.4	0.98845
966.6	0.98781
966.8	0.98842
967.0	0.98774
967.2	0.98701
967.4	0.98702
967.6	0.98691
967.8	0.98699
968.0	0.98672
968.2	0.98759
968.4	0.98671
968.6	0.98588
968.8	0.98636
969.0	0.98591
969.2	0.98611
969.4	0.98568
969.6	0.98585
969.8	0.9858
970.0	0.98616
970.2	0.98617
970.4	0.98582
970.6	0.98673
970.8	0.98622
971.0	0.9859
971.2	0.98599
971.4	0.98559
971.6	0.98551
971.8	0.98611
972.0	0.9861
972.2	0.98619
972.4	0.98701
972.6	0.98714
972.8	0.98609
973.0	0.98752
973.2	0.9877
973.4	0.98679
973.6	0.98646
973.8	0.98718
974.0	0.98689
974.2	0.98796
974.4	0.98759
974.6	0.98784
974.8	0.98756
975.0	0.98733
975.2	0.98773
975.4	0.98771
975.6	0.9876
975.8	0.98803
976.0	0.98832
976.2	0.98781
976.4	0.98831
976.6	0.98886
976.8	0.98888
977.0	0.98901
977.2	0.98922
977.4	0.99015
977.6	0.98962
977.8	0.98925
978.0	0.98917
978.2	0.98921
978.4	0.98837
978.6	0.98894
978.8	0.99004
979.0	0.989
979.2	0.98928
979.4	0.98974
979.6	0.99064
979.8	0.9902
980.0	0.99029
980.2	0.99079
980.4	0.9899
980.6	0.99063
980.8	0.99012
981.0	0.99073
981.2	0.98988
981.4	0.99064
981.6	0.99135
981.8	0.99002
982.0	0.98978
982.2	0.99027
982.4	0.98971
982.6	0.9907
982.8	0.98986
983.0	0.99008
983.2	0.98973
983.4	0.98997
983.6	0.98962
983.8	0.98937
984.0	0.98896
984.2	0.98948
984.4	0.98865
984.6	0.988
984.8	0.98913
985.0	0.98874
985.2	0.98812
985.4	0.98884
985.6	0.98898
985.8	0.98902
986.0	0.98823
986.2	0.98751
986.4	0.98765
986.6	0.98815
986.8	0.98813
987.0	0.98811
987.2	0.98798
987.4	0.9872
987.6	0.98741
987.8	0.98765
988.0	0.9872
988.2	0.98527
988.4	0.98585
988.6	0.98605
988.8	0.98701
989.0	0.98585
989.2	0.9872
989.4	0.9875
989.6	0.98715
989.8	0.98669
990.0	0.98655
990.2	0.98673
990.4	0.98612
990.6	0.98601
990.8	0.98594
991.0	0.98631
991.2	0.98636
991.4	0.98752
991.6	0.98681
991.8	0.98534
992.0	0.98542
992.2	0.98641
992.4	0.98697
992.6	0.98768
992.8	0.98636
993.0	0.98673
993.2	0.98737
993.4	0.9867
993.6	0.98622
993.8	0.98797
994.0	0.988
994.2	0.98743
994.4	0.98793
994.6	0.98715
994.8	0.98713
995.0	0.98981
995.2	0.98888
995.4	0.98862
995.6	0.98828
995.8	0.98802
996.0	0.98831
996.2	0.98856
996.4	0.98809
996.6	0.98872
996.8	0.98896
997.0	0.98986
997.2	0.9906
997.4	0.99009
997.6	0.98997
997.8	0.99049
998.0	0.9897
998.2	0.98844
998.4	0.98899
998.6	0.98872
998.8	0.9887
999.0	0.98978
999.2	0.9905
999.4	0.99102
999.6	0.98965
999.8	0.98972
1000.0	0.98925
1000.2	0.99127
1000.4	0.99074
1000.6	0.98905
1000.8	0.9895
1001.0	0.99052
1001.2	0.99102
1001.4	0.99008
1001.6	0.98908
1001.8	0.99012
1002.0	0.98938
1002.2	0.98909
1002.4	0.98779
1002.6	0.98875
1002.8	0.98874
1003.0	0.98858
1003.2	0.98825
1003.4	0.98894
1003.6	0.98818
1003.8	0.98973
1004.0	0.98959
1004.2	0.98818
1004.4	0.98846
1004.6	0.9895
1004.8	0.9892
1005.0	0.9872
1005.2	0.98729
1005.4	0.98496
1005.6	0.98523
1005.8	0.98516
1006.0	0.9858
1006.2	0.98519
1006.4	0.98548
1006.6	0.98654
1006.8	0.98496
1007.0	0.98431
1007.2	0.98556
1007.4	0.98554
1007.6	0.98453
1007.8	0.98481
1008.0	0.98534
1008.2	0.98493
1008.4	0.98431
1008.6	0.98351
1008.8	0.98329
1009.0	0.98463
1009.2	0.98349
1009.4	0.98405
1009.6	0.98284
1009.8	0.98285
1010.0	0.98376
1010.2	0.98558
1010.4	0.98362
1010.6	0.98351
1010.8	0.98308
1011.0	0.98343
1011.2	0.98453
1011.4	0.98296
1011.6	0.98378
1011.8	0.98318
1012.0	0.98367
1012.2	0.98344
1012.4	0.98418
1012.6	0.98442
1012.8	0.98434
1013.0	0.98599
1013.2	0.98478
1013.4	0.98397
1013.6	0.98194
1013.8	0.98402
1014.0	0.98248
1014.2	0.98483
1014.4	0.98315
1014.6	0.98361
1014.8	0.98398
1015.0	0.98571
1015.2	0.98557
1015.4	0.98567
1015.6	0.98366
1015.8	0.98588
1016.0	0.98651
1016.2	0.98679
1016.4	0.98686
1016.6	0.9854
1016.8	0.98553
1017.0	0.98515
1017.2	0.9867
1017.4	0.98544
1017.6	0.98601
1017.8	0.98584
1018.0	0.98617
1018.2	0.98615
1018.4	0.98642
1018.6	0.98701
1018.8	0.98779
1019.0	0.98647
1019.2	0.98738
1019.4	0.98527
1019.6	0.98556
1019.8	0.98678
1020.0	0.9862
1020.2	0.98575
1020.4	0.98588
1020.6	0.98517
1020.8	0.98631
1021.0	0.98578
1021.2	0.98653
1021.4	0.98547
1021.6	0.98722
1021.8	0.98655
1022.0	0.98522
1022.2	0.98781
1022.4	0.98533
1022.6	0.98665
1022.8	0.98556
1023.0	0.98385
1023.2	0.98656
1023.4	0.98586
1023.6	0.98569
1023.8	0.98456
1024.0	0.9842
1024.2	0.98543
1024.4	0.98628
1024.6	0.98579
1024.8	0.98587
1025.0	0.98497
1025.2	0.98393
1025.4	0.98384
1025.6	0.98642
1025.8	0.98601
1026.0	0.98501
1026.2	0.98469
1026.4	0.98523
1026.6	0.98501
1026.8	0.98361
1027.0	0.98438
1027.2	0.98342
1027.4	0.98308
1027.6	0.98346
1027.8	0.98426
1028.0	0.98393
1028.2	0.9842
1028.4	0.98426
1028.6	0.98394
1028.8	0.98186
1029.0	0.98223
1029.2	0.9837
1029.4	0.98281
1029.6	0.98324
1029.8	0.98393
1030.0	0.9823
1030.2	0.98272
1030.4	0.98123
1030.6	0.98363
1030.8	0.98249
1031.0	0.98314
1031.2	0.98297
1031.4	0.9841
1031.6	0.98219
1031.8	0.98298
1032.0	0.98316
1032.2	0.98286
1032.4	0.98281
1032.6	0.98217
1032.8	0.98297
1033.0	0.98271
1033.2	0.98221
1033.4	0.98506
1033.6	0.98257
1033.8	0.98409
1034.0	0.98517
1034.2	0.9818
1034.4	0.98399
1034.6	0.98231
1034.8	0.98173
1035.0	0.98285
1035.2	0.98317
1035.4	0.98217
1035.6	0.98427
1035.8	0.98209
1036.0	0.98314
1036.2	0.98306
1036.4	0.98373
1036.6	0.98458
1036.8	0.98414
1037.0	0.98498
1037.2	0.9847
1037.4	0.98449
1037.6	0.98436
1037.8	0.98229
1038.0	0.98377
1038.2	0.98425
1038.4	0.98529
1038.6	0.98526
1038.8	0.9853
1039.0	0.98476
1039.2	0.98475
1039.4	0.98523
1039.6	0.98479
1039.8	0.98507
1040.0	0.98456
1040.2	0.98616
1040.4	0.98493
1040.6	0.98325
1040.8	0.98464
1041.0	0.98456
1041.2	0.98702
1041.4	0.98516
1041.6	0.9868
1041.8	0.98698
1042.0	0.98566
1042.2	0.98848
1042.4	0.98674
1042.6	0.98672
1042.8	0.98355
1043.0	0.98483
1043.2	0.98421
1043.4	0.98683
1043.6	0.98362
1043.8	0.98579
1044.0	0.98521
1044.2	0.98655
1044.4	0.98408
1044.6	0.98426
1044.8	0.98425
1045.0	0.98606
1045.2	0.98539
1045.4	0.98254
1045.6	0.98494
1045.8	0.98362
1046.0	0.98497
1046.2	0.98698
1046.4	0.98199
1046.6	0.98402
1046.8	0.98546
1047.0	0.98334
1047.2	0.98279
1047.4	0.98309
1047.6	0.98506
1047.8	0.98422
1048.0	0.98465
1048.2	0.98432
1048.4	0.9837
1048.6	0.98458
1048.8	0.98264
1049.0	0.98334
1049.2	0.98121
1049.4	0.98292
1049.6	0.98289
1049.8	0.98143
1050.0	0.98232
1050.2	0.9834
1050.4	0.98319
1050.6	0.98026
1050.8	0.98277
1051.0	0.98289
1051.2	0.98197
1051.4	0.97962
1051.6	0.98099
1051.8	0.98302
1052.0	0.98119
1052.2	0.98059
1052.4	0.98231
1052.6	0.98194
1052.8	0.97988
1053.0	0.98238
1053.2	0.98221
1053.4	0.98104
1053.6	0.98196
1053.8	0.98036
1054.0	0.98194
1054.2	0.98114
1054.4	0.98249
1054.6	0.98167
1054.8	0.98326
1055.0	0.98075
1055.2	0.98122
1055.4	0.98149
1055.6	0.98263
1055.8	0.98268
1056.0	0.98334
1056.2	0.98307
1056.4	0.98233
1056.6	0.98282
1056.8	0.9807
1057.0	0.98381
1057.2	0.98349
1057.4	0.98023
1057.6	0.98246
1057.8	0.98137
1058.0	0.98102
1058.2	0.98408
1058.4	0.9817
1058.6	0.98255
1058.8	0.98287
1059.0	0.98355
1059.2	0.98376
1059.4	0.98214
1059.6	0.98299
1059.8	0.98296
1060.0	0.98461
1060.2	0.9839
1060.4	0.9837
1060.6	0.98542
1060.8	0.98581
1061.0	0.98541
1061.2	0.98639
1061.4	0.98472
1061.6	0.98458
1061.8	0.98408
1062.0	0.9858
1062.2	0.98648
1062.4	0.98324
1062.6	0.9834
1062.8	0.98297
1063.0	0.98417
1063.2	0.98304
1063.4	0.98228
1063.6	0.98506
1063.8	0.98369
1064.0	0.98454
1064.2	0.98382
1064.4	0.98571
1064.6	0.98404
1064.8	0.98332
1065.0	0.98339
1065.2	0.98276
1065.4	0.98396
1065.6	0.98457
1065.8	0.985
1066.0	0.98373
1066.2	0.98308
1066.4	0.98335
1066.6	0.98366
1066.8	0.98194
1067.0	0.98199
1067.2	0.9828
1067.4	0.98452
1067.6	0.9823
1067.8	0.98392
1068.0	0.98265
1068.2	0.98236
1068.4	0.98093
1068.6	0.98117
1068.8	0.98077
1069.0	0.9811
1069.2	0.98048
1069.4	0.9812
1069.6	0.98108
1069.8	0.98057
1070.0	0.98048
1070.2	0.98079
1070.4	0.98114
1070.6	0.98177
1070.8	0.98116
1071.0	0.98084
1071.2	0.98077
1071.4	0.98074
1071.6	0.97882
1071.8	0.97914
1072.0	0.98061
1072.2	0.97983
1072.4	0.98147
1072.6	0.98035
1072.8	0.97962
1073.0	0.97859
1073.2	0.97998
1073.4	0.97733
1073.6	0.97805
1073.8	0.97845
1074.0	0.97936
1074.2	0.9803
1074.4	0.97953
1074.6	0.97871
1074.8	0.9768
1075.0	0.9777
1075.2	0.97808
1075.4	0.97816
1075.6	0.97847
1075.8	0.97788
1076.0	0.97835
1076.2	0.97825
1076.4	0.97735
1076.6	0.97905
1076.8	0.97924
1077.0	0.97648
1077.2	0.97892
1077.4	0.97958
1077.6	0.97763
1077.8	0.97963
1078.0	0.97917
1078.2	0.97955
1078.4	0.97964
1078.6	0.97865
1078.8	0.97872
1079.0	0.97901
1079.2	0.97891
1079.4	0.97814
1079.6	0.97903
1079.8	0.97999
1080.0	0.97901
1080.2	0.98025
1080.4	0.97838
1080.6	0.97785
1080.8	0.97837
1081.0	0.97778
1081.2	0.97889
1081.4	0.9799
1081.6	0.98006
1081.8	0.98021
1082.0	0.98115
1082.2	0.98027
1082.4	0.97905
1082.6	0.97942
1082.8	0.97965
1083.0	0.98107
1083.2	0.98223
1083.4	0.98169
1083.6	0.98287
1083.8	0.97993
1084.0	0.97999
1084.2	0.97896
1084.4	0.98303
1084.6	0.98145
1084.8	0.98162
1085.0	0.98241
1085.2	0.98355
1085.4	0.98304
1085.6	0.98323
1085.8	0.98319
1086.0	0.98134
1086.2	0.98166
1086.4	0.98282
1086.6	0.98224
1086.8	0.9817
1087.0	0.98348
1087.2	0.98205
1087.4	0.98394
1087.6	0.98257
1087.8	0.98427
1088.0	0.98315
1088.2	0.9821
1088.4	0.98103
1088.6	0.9822
1088.8	0.98125
1089.0	0.98225
1089.2	0.98238
1089.4	0.98242
1089.6	0.98139
1089.8	0.98151
1090.0	0.98243
1090.2	0.98315
1090.4	0.98337
1090.6	0.98203
1090.8	0.98244
1091.0	0.9807
1091.2	0.98037
1091.4	0.98361
1091.6	0.98032
1091.8	0.98066
1092.0	0.98189
1092.2	0.9817
1092.4	0.98044
1092.6	0.97931
1092.8	0.97939
1093.0	0.98094
1093.2	0.98062
1093.4	0.98075
1093.6	0.98108
1093.8	0.97997
1094.0	0.98054
1094.2	0.97895
1094.4	0.97862
1094.6	0.97875
1094.8	0.97863
1095.0	0.97924
1095.2	0.97784
1095.4	0.97767
1095.6	0.97825
1095.8	0.97687
1096.0	0.97772
1096.2	0.97964
1096.4	0.9793
1096.6	0.97814
1096.8	0.97999
1097.0	0.97934
1097.2	0.97682
1097.4	0.97609
1097.6	0.9765
1097.8	0.9787
1098.0	0.97693
1098.2	0.97781
1098.4	0.97737
1098.6	0.97603
1098.8	0.97679
1099.0	0.97422
1099.2	0.97461
1099.4	0.97517
1099.6	0.978
1099.8	0.97751
1100.0	0.97629
1100.2	0.97467
1100.4	0.97494
1100.6	0.97622
1100.8	0.97515
1101.0	0.9758
1101.2	0.97437
1101.4	0.9767
1101.6	0.97557
1101.8	0.97455
1102.0	0.97587
1102.2	0.97635
1102.4	0.97485
1102.6	0.97661
1102.8	0.97409
1103.0	0.97492
1103.2	0.97505
1103.4	0.97693
1103.6	0.97465
1103.8	0.97695
1104.0	0.9772
1104.2	0.97429
1104.4	0.97682
1104.6	0.97493
1104.8	0.9736
1105.0	0.97474
1105.2	0.97489
1105.4	0.9755
1105.6	0.97553
1105.8	0.97547
1106.0	0.97557
1106.2	0.97591
1106.4	0.97787
1106.6	0.97349
1106.8	0.97637
1107.0	0.97454
1107.2	0.97723
1107.4	0.97548
1107.6	0.97616
1107.8	0.97589
1108.0	0.97288
1108.2	0.97653
1108.4	0.97624
1108.6	0.976
1108.8	0.97595
1109.0	0.97391
1109.2	0.97456
1109.4	0.97257
1109.6	0.97575
1109.8	0.97677
1110.0	0.97757
1110.2	0.97504
1110.4	0.9753
1110.6	0.97507
1110.8	0.97647
1111.0	0.97458
1111.2	0.97488
1111.4	0.9767
1111.6	0.97314
1111.8	0.97773
1112.0	0.97643
1112.2	0.97531
1112.4	0.97309
1112.6	0.9742
1112.8	0.97496
1113.0	0.97316
1113.2	0.97328
1113.4	0.97457
1113.6	0.97216
1113.8	0.97545
1114.0	0.97209
1114.2	0.97447
1114.4	0.97244
1114.6	0.97399
1114.8	0.97396
1115.0	0.97112
1115.2	0.96853
1115.4	0.97334
1115.6	0.97318
1115.8	0.97047
1116.0	0.97371
1116.2	0.9709
1116.4	0.97111
1116.6	0.97126
1116.8	0.97198
1117.0	0.97214
1117.2	0.96692
1117.4	0.9693
1117.6	0.96702
1117.8	0.9687
1118.0	0.96975
1118.2	0.96356
1118.4	0.97054
1118.6	0.96667
1118.8	0.96948
1119.0	0.96859
1119.2	0.96709
1119.4	0.96618
1119.6	0.96787
1119.8	0.96242
1120.0	0.98398
1120.2	0.98388
1120.4	0.98379
1120.6	0.98369
1120.8	0.98359
1121.0	0.9835
1121.2	0.98356
1121.4	0.98362
1121.6	0.98368
1121.8	0.98375
1122.0	0.9838
1122.2	0.98365
1122.4	0.98349
1122.6	0.98334
1122.8	0.98318
1123.0	0.98304
1123.2	0.98321
1123.4	0.98339
1123.6	0.98356
1123.8	0.98373
1124.0	0.98389
1124.2	0.9837
1124.4	0.98351
1124.6	0.98331
1124.8	0.98312
1125.0	0.98294
1125.2	0.98281
1125.4	0.98268
1125.6	0.98255
1125.8	0.98243
1126.0	0.98231
1126.2	0.98243
1126.4	0.98256
1126.6	0.98268
1126.8	0.98281
1127.0	0.98293
1127.2	0.98292
1127.4	0.98292
1127.6	0.98291
1127.8	0.98291
1128.0	0.9829
1128.2	0.98313
1128.4	0.98336
1128.6	0.98359
1128.8	0.98382
1129.0	0.98404
1129.2	0.98393
1129.4	0.98382
1129.6	0.9837
1129.8	0.98359
1130.0	0.98348
1130.2	0.98362
1130.4	0.98376
1130.6	0.98389
1130.8	0.98403
1131.0	0.98416
1131.2	0.98435
1131.4	0.98454
1131.6	0.98473
1131.8	0.98492
1132.0	0.98511
1132.2	0.98535
1132.4	0.98558
1132.6	0.98582
1132.8	0.98605
1133.0	0.98627
1133.2	0.98619
1133.4	0.98611
1133.6	0.98604
1133.8	0.98596
1134.0	0.98589
1134.2	0.98607
1134.4	0.98625
1134.6	0.98644
1134.8	0.98662
1135.0	0.98682
1135.2	0.98729
1135.4	0.98776
1135.6	0.98823
1135.8	0.9887
1136.0	0.98917
1136.2	0.98887
1136.4	0.98857
1136.6	0.98827
1136.8	0.98798
1137.0	0.98769
1137.2	0.98772
1137.4	0.98776
1137.6	0.9878
1137.8	0.98784
1138.0	0.98788
1138.2	0.98795
1138.4	0.98803
1138.6	0.9881
1138.8	0.98817
1139.0	0.98823
1139.2	0.9878
1139.4	0.98737
1139.6	0.98694
1139.8	0.98651
1140.0	0.9861
1140.2	0.98627
1140.4	0.98644
1140.6	0.98661
1140.8	0.98678
1141.0	0.98695
1141.2	0.98705
1141.4	0.98715
1141.6	0.98725
1141.8	0.98735
1142.0	0.98744
1142.2	0.98719
1142.4	0.98694
1142.6	0.98669
1142.8	0.98644
1143.0	0.98622
1143.2	0.98724
1143.4	0.98826
1143.6	0.98928
1143.8	0.9903
1144.0	0.99126
1144.2	0.99034
1144.4	0.98943
1144.6	0.98852
1144.8	0.98761
1145.0	0.98671
1145.2	0.98635
1145.4	0.986
1145.6	0.98565
1145.8	0.9853
1146.0	0.98495
1146.2	0.98488
1146.4	0.98482
1146.6	0.98475
1146.8	0.98468
1147.0	0.98462
1147.2	0.98454
1147.4	0.98446
1147.6	0.98438
1147.8	0.9843
1148.0	0.98421
1148.2	0.98406
1148.4	0.98391
1148.6	0.98376
1148.8	0.98361
1149.0	0.98346
1149.2	0.98335
1149.4	0.98325
1149.6	0.98314
1149.8	0.98303
1150.0	0.98293
1150.2	0.98315
1150.4	0.98336
1150.6	0.98358
1150.8	0.98379
1151.0	0.984
1151.2	0.98409
1151.4	0.98417
1151.6	0.98426
1151.8	0.98435
1152.0	0.98443
1152.2	0.98447
1152.4	0.98452
1152.6	0.98456
1152.8	0.9846
1153.0	0.98463
1153.2	0.9845
1153.4	0.98437
1153.6	0.98424
1153.8	0.98411
1154.0	0.98399
1154.2	0.98411
1154.4	0.98423
1154.6	0.98436
1154.8	0.98448
1155.0	0.9846
1155.2	0.98466
1155.4	0.98471
1155.6	0.98476
1155.8	0.98482
1156.0	0.98487
1156.2	0.98498
1156.4	0.98509
1156.6	0.9852
1156.8	0.98531
1157.0	0.98542
1157.2	0.98536
1157.4	0.98529
1157.6	0.98522
1157.8	0.98515
1158.0	0.9851
1158.2	0.98536
1158.4	0.98563
1158.6	0.9859
1158.8	0.98616
1159.0	0.98642
1159.2	0.98637
1159.4	0.98633
1159.6	0.98628
1159.8	0.98624
1160.0	0.9862
1160.2	0.98643
1160.4	0.98667
1160.6	0.9869
1160.8	0.98714
1161.0	0.98736
1161.2	0.98723
1161.4	0.98711
1161.6	0.98698
1161.8	0.98685
1162.0	0.98673
1162.2	0.98689
1162.4	0.98705
1162.6	0.98722
1162.8	0.98738
1163.0	0.98754
1163.2	0.9877
1163.4	0.98786
1163.6	0.98801
1163.8	0.98817
1164.0	0.98832
1164.2	0.98818
1164.4	0.98804
1164.6	0.98789
1164.8	0.98775
1165.0	0.98761
1165.2	0.98751
1165.4	0.9874
1165.6	0.98729
1165.8	0.98719
1166.0	0.98708
1166.2	0.98699
1166.4	0.9869
1166.6	0.98681
1166.8	0.98671
1167.0	0.98662
1167.2	0.98657
1167.4	0.98652
1167.6	0.98646
1167.8	0.98641
1168.0	0.98636
1168.2	0.98641
1168.4	0.98646
1168.6	0.98651
1168.8	0.98655
1169.0	0.9866
1169.2	0.98657
1169.4	0.98654
1169.6	0.98651
1169.8	0.98648
1170.0	0.98644
1170.2	0.98635
1170.4	0.98626
1170.6	0.98617
1170.8	0.98608
1171.0	0.98598
1171.2	0.98582
1171.4	0.98566
1171.6	0.9855
1171.8	0.98534
1172.0	0.98518
1172.2	0.98509
1172.4	0.985
1172.6	0.9849
1172.8	0.98481
1173.0	0.98472
1173.2	0.98469
1173.4	0.98467
1173.6	0.98464
1173.8	0.98462
1174.0	0.98459
1174.2	0.98447
1174.4	0.98434
1174.6	0.98421
1174.8	0.98409
1175.0	0.98396
1175.2	0.98385
1175.4	0.98375
1175.6	0.98364
1175.8	0.98354
1176.0	0.98343
1176.2	0.98352
1176.4	0.98361
1176.6	0.98369
1176.8	0.98378
1177.0	0.98387
1177.2	0.9839
1177.4	0.98394
1177.6	0.98397
1177.8	0.98401
1178.0	0.98404
1178.2	0.98391
1178.4	0.98378
1178.6	0.98365
1178.8	0.98351
1179.0	0.98339
1179.2	0.98341
1179.4	0.98344
1179.6	0.98346
1179.8	0.98348
1180.0	0.98351
1180.2	0.98363
1180.4	0.98376
1180.6	0.98388
1180.8	0.984
1181.0	0.98413
1181.2	0.98427
1181.4	0.98441
1181.6	0.98455
1181.8	0.98469
1182.0	0.98483
1182.2	0.98478
1182.4	0.98473
1182.6	0.98468
1182.8	0.98463
1183.0	0.98459
1183.2	0.98472
1183.4	0.98485
1183.6	0.98497
1183.8	0.9851
1184.0	0.98522
1184.2	0.98533
1184.4	0.98544
1184.6	0.98554
1184.8	0.98565
1185.0	0.98576
1185.2	0.98605
1185.4	0.98634
1185.6	0.98663
1185.8	0.98692
1186.0	0.98721
1186.2	0.98739
1186.4	0.98757
1186.6	0.98775
1186.8	0.98793
1187.0	0.98811
1187.2	0.98825
1187.4	0.98839
1187.6	0.98853
1187.8	0.98867
1188.0	0.98881
1188.2	0.98886
1188.4	0.98891
1188.6	0.98896
1188.8	0.989
1189.0	0.98905
1189.2	0.98899
1189.4	0.98894
1189.6	0.98888
1189.8	0.98883
1190.0	0.98878
1190.2	0.98883
1190.4	0.98889
1190.6	0.98894
1190.8	0.98899
1191.0	0.98905
1191.2	0.98905
1191.4	0.98905
1191.6	0.98906
1191.8	0.98906
1192.0	0.98907
1192.2	0.98917
1192.4	0.98928
1192.6	0.98938
1192.8	0.98949
1193.0	0.98959
1193.2	0.98965
1193.4	0.98972
1193.6	0.98978
1193.8	0.98984
1194.0	0.98989
1194.2	0.98981
1194.4	0.98973
1194.6	0.98965
1194.8	0.98957
1195.0	0.98949
1195.2	0.98941
1195.4	0.98934
1195.6	0.98926
1195.8	0.98919
1196.0	0.98912
1196.2	0.98909
1196.4	0.98906
1196.6	0.98902
1196.8	0.98899
1197.0	0.98896
1197.2	0.98885
1197.4	0.98874
1197.6	0.98863
1197.8	0.98853
1198.0	0.98842
1198.2	0.98829
1198.4	0.98816
1198.6	0.98803
1198.8	0.9879
1199.0	0.98778
1199.2	0.98771
1199.4	0.98764
1199.6	0.98757
1199.8	0.9875
1200.0	0.98743
1200.2	0.98732
1200.4	0.98721
1200.6	0.9871
1200.8	0.98699
1201.0	0.98689
1201.2	0.98688
1201.4	0.98688
1201.6	0.98687
1201.8	0.98686
1202.0	0.98686
1202.2	0.98674
1202.4	0.98662
1202.6	0.9865
1202.8	0.98639
1203.0	0.98626
1203.2	0.98598
1203.4	0.9857
1203.6	0.98542
1203.8	0.98514
1204.0	0.98486
1204.2	0.98478
1204.4	0.9847
1204.6	0.98461
1204.8	0.98453
1205.0	0.98445
1205.2	0.98444
1205.4	0.98443
1205.6	0.98441
1205.8	0.9844
1206.0	0.98439
1206.2	0.98441
1206.4	0.98444
1206.6	0.98446
1206.8	0.98448
1207.0	0.98451
1207.2	0.98457
1207.4	0.98464
1207.6	0.98471
1207.8	0.98478
1208.0	0.98484
1208.2	0.98478
1208.4	0.98471
1208.6	0.98464
1208.8	0.98458
1209.0	0.98452
1209.2	0.98462
1209.4	0.98473
1209.6	0.98484
1209.8	0.98495
1210.0	0.98505
1210.2	0.98507
1210.4	0.98509
1210.6	0.98511
1210.8	0.98513
1211.0	0.98516
1211.2	0.98535
1211.4	0.98554
1211.6	0.98574
1211.8	0.98593
1212.0	0.98612
1212.2	0.98627
1212.4	0.98642
1212.6	0.98656
1212.8	0.98671
1213.0	0.98685
1213.2	0.98679
1213.4	0.98673
1213.6	0.98668
1213.8	0.98662
1214.0	0.98657
1214.2	0.98667
1214.4	0.98678
1214.6	0.98688
1214.8	0.98699
1215.0	0.98709
1215.2	0.98711
1215.4	0.98712
1215.6	0.98714
1215.8	0.98716
1216.0	0.98717
1216.2	0.98735
1216.4	0.98753
1216.6	0.9877
1216.8	0.98788
1217.0	0.98805
1217.2	0.98818
1217.4	0.98831
1217.6	0.98844
1217.8	0.98857
1218.0	0.9887
1218.2	0.98873
1218.4	0.98876
1218.6	0.98879
1218.8	0.98883
1219.0	0.98886
1219.2	0.98887
1219.4	0.98889
1219.6	0.9889
1219.8	0.98891
1220.0	0.98892
1220.2	0.98885
1220.4	0.98878
1220.6	0.98871
1220.8	0.98863
1221.0	0.98857
1221.2	0.9887
1221.4	0.98884
1221.6	0.98898
1221.8	0.98912
1222.0	0.98925
1222.2	0.98905
1222.4	0.98886
1222.6	0.98866
1222.8	0.98846
1223.0	0.98829
1223.2	0.98854
1223.4	0.98879
1223.6	0.98905
1223.8	0.9893
1224.0	0.98955
1224.2	0.98952
1224.4	0.98949
1224.6	0.98947
1224.8	0.98944
1225.0	0.98941
1225.2	0.9892
1225.4	0.98898
1225.6	0.98876
1225.8	0.98855
1226.0	0.98834
1226.2	0.98831
1226.4	0.98827
1226.6	0.98824
1226.8	0.9882
1227.0	0.98816
1227.2	0.98807
1227.4	0.98797
1227.6	0.98787
1227.8	0.98778
1228.0	0.98768
1228.2	0.98755
1228.4	0.98741
1228.6	0.98728
1228.8	0.98714
1229.0	0.98701
1229.2	0.9869
1229.4	0.98679
1229.6	0.98669
1229.8	0.98658
1230.0	0.98648
1230.2	0.98645
1230.4	0.98643
1230.6	0.9864
1230.8	0.98638
1231.0	0.98635
1231.2	0.9861
1231.4	0.98585
1231.6	0.9856
1231.8	0.98536
1232.0	0.98511
1232.2	0.98503
1232.4	0.98494
1232.6	0.98486
1232.8	0.98477
1233.0	0.98469
1233.2	0.98461
1233.4	0.98454
1233.6	0.98447
1233.8	0.9844
1234.0	0.98432
1234.2	0.98434
1234.4	0.98435
1234.6	0.98437
1234.8	0.98438
1235.0	0.9844
1235.2	0.98443
1235.4	0.98447
1235.6	0.9845
1235.8	0.98454
1236.0	0.98458
1236.2	0.98462
1236.4	0.98466
1236.6	0.9847
1236.8	0.98474
1237.0	0.98478
1237.2	0.98475
1237.4	0.98471
1237.6	0.98467
1237.8	0.98463
1238.0	0.9846
1238.2	0.98468
1238.4	0.98476
1238.6	0.98484
1238.8	0.98492
1239.0	0.985
1239.2	0.98499
1239.4	0.98498
1239.6	0.98498
1239.8	0.98497
1240.0	0.98497
1240.2	0.98498
1240.4	0.98499
1240.6	0.985
1240.8	0.98501
1241.0	0.98502
1241.2	0.98502
1241.4	0.98501
1241.6	0.985
1241.8	0.985
1242.0	0.985
1242.2	0.98542
1242.4	0.98583
1242.6	0.98625
1242.8	0.98667
1243.0	0.98708
1243.2	0.9871
1243.4	0.98712
1243.6	0.98715
1243.8	0.98717
1244.0	0.9872
1244.2	0.98746
1244.4	0.98773
1244.6	0.98799
1244.8	0.98825
1245.0	0.9885
1245.2	0.98838
1245.4	0.98827
1245.6	0.98815
1245.8	0.98804
1246.0	0.98793
1246.2	0.98813
1246.4	0.98832
1246.6	0.98851
1246.8	0.9887
1247.0	0.98889
1247.2	0.98907
1247.4	0.98924
1247.6	0.98942
1247.8	0.98959
1248.0	0.98976
1248.2	0.98972
1248.4	0.98968
1248.6	0.98965
1248.8	0.98961
1249.0	0.98958
1249.2	0.98979
1249.4	0.99001
1249.6	0.99023
1249.8	0.99044
1250.0	0.99064
1250.2	0.99056
1250.4	0.99047
1250.6	0.99039
1250.8	0.9903
1251.0	0.99022
1251.2	0.99033
1251.4	0.99044
1251.6	0.99055
1251.8	0.99065
1252.0	0.99075
1252.2	0.99073
1252.4	0.99071
1252.6	0.99068
1252.8	0.99066
1253.0	0.99064
1253.2	0.99071
1253.4	0.99079
1253.6	0.99086
1253.8	0.99093
1254.0	0.99101
1254.2	0.99108
1254.4	0.99116
1254.6	0.99124
1254.8	0.99132
1255.0	0.99139
1255.2	0.99119
1255.4	0.99099
1255.6	0.99079
1255.8	0.99059
1256.0	0.99039
1256.2	0.99028
1256.4	0.99017
1256.6	0.99006
1256.8	0.98995
1257.0	0.98984
1257.2	0.9897
1257.4	0.98957
1257.6	0.98944
1257.8	0.9893
1258.0	0.98918
1258.2	0.9892
1258.4	0.98923
1258.6	0.98925
1258.8	0.98927
1259.0	0.98929
1259.2	0.98915
1259.4	0.98901
1259.6	0.98887
1259.8	0.98873
1260.0	0.98859
1260.2	0.98827
1260.4	0.98796
1260.6	0.98764
1260.8	0.98732
1261.0	0.98702
1261.2	0.98715
1261.4	0.98728
1261.6	0.98741
1261.8	0.98753
1262.0	0.98765
1262.2	0.98753
1262.4	0.98741
1262.6	0.98728
1262.8	0.98716
1263.0	0.98704
1263.2	0.98689
1263.4	0.98674
1263.6	0.98658
1263.8	0.98643
1264.0	0.98629
1264.2	0.98623
1264.4	0.98618
1264.6	0.98612
1264.8	0.98606
1265.0	0.98601
1265.2	0.98604
1265.4	0.98608
1265.6	0.98611
1265.8	0.98615
1266.0	0.98618
1266.2	0.98604
1266.4	0.98591
1266.6	0.98578
1266.8	0.98565
1267.0	0.98552
1267.2	0.98538
1267.4	0.98523
1267.6	0.98509
1267.8	0.98494
1268.0	0.9848
1268.2	0.98491
1268.4	0.98502
1268.6	0.98513
1268.8	0.98525
1269.0	0.98535
1269.2	0.98532
1269.4	0.98529
1269.6	0.98525
1269.8	0.98522
1270.0	0.98519
1270.2	0.98518
1270.4	0.98516
1270.6	0.98515
1270.8	0.98514
1271.0	0.98512
1271.2	0.98532
1271.4	0.98551
1271.6	0.9857
1271.8	0.98589
1272.0	0.98608
1272.2	0.98609
1272.4	0.98609
1272.6	0.9861
1272.8	0.9861
1273.0	0.98611
1273.2	0.98614
1273.4	0.98617
1273.6	0.98619
1273.8	0.98622
1274.0	0.98626
1274.2	0.98644
1274.4	0.98661
1274.6	0.98679
1274.8	0.98697
1275.0	0.98714
1275.2	0.98719
1275.4	0.98724
1275.6	0.98728
1275.8	0.98733
1276.0	0.98737
1276.2	0.98744
1276.4	0.98751
1276.6	0.98758
1276.8	0.98765
1277.0	0.98773
1277.2	0.988
1277.4	0.98828
1277.6	0.98855
1277.8	0.98883
1278.0	0.98909
1278.2	0.98911
1278.4	0.98913
1278.6	0.98915
1278.8	0.98916
1279.0	0.98918
1279.2	0.98911
1279.4	0.98903
1279.6	0.98896
1279.8	0.98889
1280.0	0.98882
1280.2	0.98902
1280.4	0.98921
1280.6	0.9894
1280.8	0.9896
1281.0	0.98978
1281.2	0.98974
1281.4	0.9897
1281.6	0.98966
1281.8	0.98962
1282.0	0.98958
1282.2	0.9896
1282.4	0.98963
1282.6	0.98966
1282.8	0.98968
1283.0	0.9897
1283.2	0.98958
1283.4	0.98945
1283.6	0.98933
1283.8	0.9892
1284.0	0.98908
1284.2	0.98915
1284.4	0.98921
1284.6	0.98927
1284.8	0.98934
1285.0	0.9894
1285.2	0.98961
1285.4	0.98983
1285.6	0.99004
1285.8	0.99025
1286.0	0.99046
1286.2	0.99032
1286.4	0.99018
1286.6	0.99004
1286.8	0.9899
1287.0	0.98977
1287.2	0.9899
1287.4	0.99003
1287.6	0.99016
1287.8	0.99029
1288.0	0.99041
1288.2	0.98997
1288.4	0.98952
1288.6	0.98908
1288.8	0.98863
1289.0	0.98821
1289.2	0.98828
1289.4	0.98834
1289.6	0.98841
1289.8	0.98848
1290.0	0.98853
1290.2	0.98831
1290.4	0.98808
1290.6	0.98786
1290.8	0.98763
1291.0	0.98741
1291.2	0.98725
1291.4	0.98708
1291.6	0.98692
1291.8	0.98676
1292.0	0.98659
1292.2	0.98643
1292.4	0.98626
1292.6	0.9861
1292.8	0.98594
1293.0	0.98578
1293.2	0.98578
1293.4	0.98577
1293.6	0.98577
1293.8	0.98577
1294.0	0.98575
1294.2	0.98542
1294.4	0.98509
1294.6	0.98476
1294.8	0.98443
1295.0	0.98412
1295.2	0.98415
1295.4	0.98417
1295.6	0.9842
1295.8	0.98423
1296.0	0.98426
1296.2	0.98423
1296.4	0.9842
1296.6	0.98418
1296.8	0.98415
1297.0	0.98412
1297.2	0.98388
1297.4	0.98364
1297.6	0.9834
1297.8	0.98316
1298.0	0.98292
1298.2	0.98305
1298.4	0.98318
1298.6	0.98331
1298.8	0.98344
1299.0	0.98356
1299.2	0.98344
1299.4	0.98332
1299.6	0.9832
1299.8	0.98308
1300.0	0.98296
1300.2	0.98304
1300.4	0.98312
1300.6	0.9832
1300.8	0.98329
1301.0	0.98336
1301.2	0.98304
1301.4	0.98271
1301.6	0.98239
1301.8	0.98207
1302.0	0.98175
1302.2	0.98211
1302.4	0.98246
1302.6	0.98282
1302.8	0.98317
1303.0	0.98352
1303.2	0.98329
1303.4	0.98307
1303.6	0.98285
1303.8	0.98263
1304.0	0.98241
1304.2	0.98273
1304.4	0.98306
1304.6	0.98338
1304.8	0.98371
1305.0	0.98402
1305.2	0.9839
1305.4	0.98378
1305.6	0.98365
1305.8	0.98353
1306.0	0.98341
1306.2	0.98365
1306.4	0.98389
1306.6	0.98412
1306.8	0.98436
1307.0	0.9846
1307.2	0.9845
1307.4	0.98441
1307.6	0.98432
1307.8	0.98422
1308.0	0.98414
1308.2	0.98439
1308.4	0.98465
1308.6	0.9849
1308.8	0.98516
1309.0	0.98541
1309.2	0.98557
1309.4	0.98573
1309.6	0.98589
1309.8	0.98604
1310.0	0.9862
1310.2	0.98629
1310.4	0.98638
1310.6	0.98647
1310.8	0.98656
1311.0	0.98665
1311.2	0.98673
1311.4	0.98682
1311.6	0.9869
1311.8	0.98698
1312.0	0.98707
1312.2	0.98718
1312.4	0.98729
1312.6	0.9874
1312.8	0.98752
1313.0	0.98763
1313.2	0.98767
1313.4	0.98772
1313.6	0.98776
1313.8	0.9878
1314.0	0.98785
1314.2	0.98786
1314.4	0.98787
1314.6	0.98788
1314.8	0.98788
1315.0	0.9879
1315.2	0.98796
1315.4	0.98803
1315.6	0.9881
1315.8	0.98816
1316.0	0.98823
1316.2	0.9883
1316.4	0.98837
1316.6	0.98844
1316.8	0.98852
1317.0	0.98858
1317.2	0.98847
1317.4	0.98835
1317.6	0.98824
1317.8	0.98813
1318.0	0.98802
1318.2	0.98816
1318.4	0.98829
1318.6	0.98843
1318.8	0.98856
1319.0	0.98869
1319.2	0.98853
1319.4	0.98836
1319.6	0.98819
1319.8	0.98802
1320.0	0.98786
1320.2	0.98796
1320.4	0.98805
1320.6	0.98815
1320.8	0.98825
1321.0	0.98833
1321.2	0.98812
1321.4	0.98791
1321.6	0.9877
1321.8	0.98749
1322.0	0.98728
1322.2	0.98712
1322.4	0.98696
1322.6	0.9868
1322.8	0.98664
1323.0	0.98649
1323.2	0.98645
1323.4	0.98641
1323.6	0.98637
1323.8	0.98633
1324.0	0.98629
1324.2	0.98626
1324.4	0.98623
1324.6	0.98619
1324.8	0.98616
1325.0	0.98614
1325.2	0.9863
1325.4	0.98646
1325.6	0.98662
1325.8	0.98678
1326.0	0.98693
1326.2	0.98679
1326.4	0.98666
1326.6	0.98652
1326.8	0.98638
1327.0	0.98625
1327.2	0.98626
1327.4	0.98626
1327.6	0.98627
1327.8	0.98628
1328.0	0.98628
1328.2	0.98608
1328.4	0.98588
1328.6	0.98568
1328.8	0.98548
1329.0	0.98529
1329.2	0.98516
1329.4	0.98504
1329.6	0.98492
1329.8	0.98479
1330.0	0.98468
1330.2	0.98474
1330.4	0.9848
1330.6	0.98486
1330.8	0.98492
1331.0	0.98498
1331.2	0.98486
1331.4	0.98473
1331.6	0.98461
1331.8	0.98449
1332.0	0.98437
1332.2	0.98436
1332.4	0.98435
1332.6	0.98435
1332.8	0.98434
1333.0	0.98434
1333.2	0.98437
1333.4	0.9844
1333.6	0.98443
1333.8	0.98446
1334.0	0.98449
1334.2	0.9846
1334.4	0.98472
1334.6	0.98483
1334.8	0.98494
1335.0	0.98505
1335.2	0.98506
1335.4	0.98507
1335.6	0.98508
1335.8	0.98509
1336.0	0.9851
1336.2	0.98525
1336.4	0.9854
1336.6	0.98555
1336.8	0.98569
1337.0	0.98584
1337.2	0.98596
1337.4	0.98607
1337.6	0.98619
1337.8	0.98631
1338.0	0.98642
1338.2	0.98636
1338.4	0.98629
1338.6	0.98623
1338.8	0.98617
1339.0	0.98611
1339.2	0.98622
1339.4	0.98633
1339.6	0.98644
1339.8	0.98655
1340.0	0.98667
1340.2	0.98686
1340.4	0.98706
1340.6	0.98726
1340.8	0.98746
1341.0	0.98764
1341.2	0.98751
1341.4	0.98738
1341.6	0.98726
1341.8	0.98713
1342.0	0.98701
1342.2	0.98694
1342.4	0.98687
1342.6	0.9868
1342.8	0.98673
1343.0	0.98667
1343.2	0.98673
1343.4	0.98679
1343.6	0.98686
1343.8	0.98692
1344.0	0.98698
1344.2	0.98689
1344.4	0.9868
1344.6	0.98671
1344.8	0.98662
1345.0	0.98653
1345.2	0.98654
1345.4	0.98655
1345.6	0.98655
1345.8	0.98656
1346.0	0.98657
1346.2	0.98646
1346.4	0.98635
1346.6	0.98624
1346.8	0.98613
1347.0	0.98602
1347.2	0.98566
1347.4	0.98531
1347.6	0.98495
1347.8	0.9846
1348.0	0.98424
1348.2	0.98371
1348.4	0.98317
1348.6	0.98264
1348.8	0.9821
1349.0	0.98158
1349.2	0.98127
1349.4	0.98097
1349.6	0.98066
1349.8	0.98036
1350.0	0.98007
1350.2	0.98093
1350.4	0.98178
1350.6	0.98264
1350.8	0.9835
1351.0	0.98441
1351.2	0.98643
1351.4	0.98845
1351.6	0.99047
1351.8	0.9925
1352.0	0.99432
1352.2	0.98926
1352.4	0.98422
1352.6	0.97921
1352.8	0.97423
1353.0	0.96935
1353.2	0.96985
1353.4	0.97035
1353.6	0.97085
1353.8	0.97135
1354.0	0.97178
1354.2	0.97043
1354.4	0.96909
1354.6	0.96774
1354.8	0.9664
1355.0	0.96509
1355.2	0.96485
1355.4	0.96461
1355.6	0.96437
1355.8	0.96413
1356.0	0.96388
1356.2	0.96279
1356.4	0.9617
1356.6	0.96061
1356.8	0.95953
1357.0	0.95854
1357.2	0.95995
1357.4	0.96136
1357.6	0.96278
1357.8	0.96419
1358.0	0.96571
1358.2	0.97085
1358.4	0.97601
1358.6	0.98121
1358.8	0.98643
1359.0	0.99148
1359.2	0.98362
1359.4	0.97583
1359.6	0.96809
1359.8	0.96042
1360.0	0.95332
1360.2	0.95856
1360.4	0.96383
1360.6	0.96913
1360.8	0.97446
1361.0	0.97913
1361.2	0.96498
1361.4	0.95103
1361.6	0.93729
1361.8	0.92374
1362.0	0.91092
1362.2	0.91914
1362.4	0.92742
1362.6	0.93578
1362.8	0.94422
1363.0	0.95268
1363.2	0.95841
1363.4	0.96419
1363.6	0.97
1363.8	0.97584
1364.0	0.9815
1364.2	0.97308
1364.4	0.96474
1364.6	0.95646
1364.8	0.94825
1365.0	0.94021
1365.2	0.94136
1365.4	0.94251
1365.6	0.94367
1365.8	0.94482
1366.0	0.94592
1366.2	0.94593
1366.4	0.94593
1366.6	0.94593
1366.8	0.94593
1367.0	0.94568
1367.2	0.93936
1367.4	0.93309
1367.6	0.92685
1367.8	0.92066
1368.0	0.91492
1368.2	0.92064
1368.4	0.92639
1368.6	0.93218
1368.8	0.93801
1369.0	0.94369
1369.2	0.9434
1369.4	0.9431
1369.6	0.94281
1369.8	0.94252
1370.0	0.94224
1370.2	0.94239
1370.4	0.94254
1370.6	0.94269
1370.8	0.94284
1371.0	0.943
1371.2	0.94352
1371.4	0.94405
1371.6	0.94457
1371.8	0.9451
1372.0	0.9456
1372.2	0.94521
1372.4	0.94482
1372.6	0.94443
1372.8	0.94405
1373.0	0.94368
1373.2	0.94394
1373.4	0.9442
1373.6	0.94446
1373.8	0.94472
1374.0	0.94497
1374.2	0.94473
1374.4	0.9445
1374.6	0.94427
1374.8	0.94404
1375.0	0.94381
1375.2	0.94368
1375.4	0.94356
1375.6	0.94343
1375.8	0.94331
1376.0	0.94319
1376.2	0.9433
1376.4	0.94342
1376.6	0.94353
1376.8	0.94365
1377.0	0.94373
1377.2	0.94311
1377.4	0.94249
1377.6	0.94186
1377.8	0.94124
1378.0	0.94067
1378.2	0.94158
1378.4	0.94248
1378.6	0.94339
1378.8	0.94429
1379.0	0.94489
1379.2	0.93797
1379.4	0.93111
1379.6	0.9243
1379.8	0.91754
1380.0	0.91135
1380.2	0.91766
1380.4	0.92401
1380.6	0.93041
1380.8	0.93685
1381.0	0.94279
1381.2	0.93715
1381.4	0.93155
1381.6	0.92598
1381.8	0.92044
1382.0	0.91498
1382.2	0.91785
1382.4	0.92073
1382.6	0.92362
1382.8	0.92653
1383.0	0.9294
1383.2	0.93017
1383.4	0.93094
1383.6	0.93172
1383.8	0.93249
1384.0	0.93321
1384.2	0.93201
1384.4	0.93082
1384.6	0.92962
1384.8	0.92843
1385.0	0.92735
1385.2	0.92938
1385.4	0.93142
1385.6	0.93347
1385.8	0.93552
1386.0	0.9373
1386.2	0.93259
1386.4	0.92791
1386.6	0.92324
1386.8	0.91861
1387.0	0.91423
1387.2	0.91494
1387.4	0.91565
1387.6	0.91636
1387.8	0.91707
1388.0	0.91776
1388.2	0.91588
1388.4	0.914
1388.6	0.91212
1388.8	0.91025
1389.0	0.90839
1389.2	0.90672
1389.4	0.90505
1389.6	0.90338
1389.8	0.90171
1390.0	0.90005
1390.2	0.89814
1390.4	0.89624
1390.6	0.89434
1390.8	0.89245
1391.0	0.8905
1391.2	0.88708
1391.4	0.88367
1391.6	0.88027
1391.8	0.87689
1392.0	0.87371
1392.2	0.87417
1392.4	0.87462
1392.6	0.87508
1392.8	0.87553
1393.0	0.87596
1393.2	0.87381
1393.4	0.87166
1393.6	0.86951
1393.8	0.86737
1394.0	0.86519
1394.2	0.86106
1394.4	0.85696
1394.6	0.85287
1394.8	0.8488
1395.0	0.84478
1395.2	0.84141
1395.4	0.83805
1395.6	0.83471
1395.8	0.83138
1396.0	0.8283
1396.2	0.82975
1396.4	0.8312
1396.6	0.83266
1396.8	0.83411
1397.0	0.8355
1397.2	0.83325
1397.4	0.831
1397.6	0.82876
1397.8	0.82652
1398.0	0.82418
1398.2	0.8174
1398.4	0.81067
1398.6	0.80401
1398.8	0.79739
1399.0	0.79127
1399.2	0.79577
1399.4	0.8003
1399.6	0.80485
1399.8	0.80943
1400.0	0.81398
1400.2	0.80741
1400.4	0.80089
1400.6	0.79443
1400.8	0.78802
1401.0	0.78182
1401.2	0.7838
1401.4	0.78578
1401.6	0.78776
1401.8	0.78975
1402.0	0.79162
1402.2	0.78996
1402.4	0.7883
1402.6	0.78665
1402.8	0.785
1403.0	0.7834
1403.2	0.78699
1403.4	0.7906
1403.6	0.79422
1403.8	0.79786
1404.0	0.80125
1404.2	0.79412
1404.4	0.78706
1404.6	0.78006
1404.8	0.77312
1405.0	0.76652
1405.2	0.76747
1405.4	0.76842
1405.6	0.76937
1405.8	0.77032
1406.0	0.77093
1406.2	0.76499
1406.4	0.75911
1406.6	0.75326
1406.8	0.74747
1407.0	0.7419
1407.2	0.74545
1407.4	0.74901
1407.6	0.75259
1407.8	0.75619
1408.0	0.75951
1408.2	0.75475
1408.4	0.75001
1408.6	0.7453
1408.8	0.74062
1409.0	0.73604
1409.2	0.73826
1409.4	0.74049
1409.6	0.74273
1409.8	0.74497
1410.0	0.74716
1410.2	0.74696
1410.4	0.74676
1410.6	0.74656
1410.8	0.74636
1411.0	0.74617
1411.2	0.74615
1411.4	0.74612
1411.6	0.7461
1411.8	0.74608
1412.0	0.74606
1412.2	0.74636
1412.4	0.74666
1412.6	0.74697
1412.8	0.74727
1413.0	0.74757
1413.2	0.7478
1413.4	0.74803
1413.6	0.74825
1413.8	0.74848
1414.0	0.74872
1414.2	0.74929
1414.4	0.74987
1414.6	0.75044
1414.8	0.75101
1415.0	0.75159
1415.2	0.75258
1415.4	0.75357
1415.6	0.75456
1415.8	0.75555
1416.0	0.7565
1416.2	0.75618
1416.4	0.75586
1416.6	0.75554
1416.8	0.75523
1417.0	0.75494
1417.2	0.7573
1417.4	0.75968
1417.6	0.76206
1417.8	0.76445
1418.0	0.76681
1418.2	0.76751
1418.4	0.76822
1418.6	0.76892
1418.8	0.76963
1419.0	0.77041
1419.2	0.77283
1419.4	0.77526
1419.6	0.7777
1419.8	0.78014
1420.0	0.78257
1420.2	0.7841
1420.4	0.78563
1420.6	0.78716
1420.8	0.78869
1421.0	0.79024
1421.2	0.79189
1421.4	0.79356
1421.6	0.79522
1421.8	0.79689
1422.0	0.79857
1422.2	0.80107
1422.4	0.80358
1422.6	0.80609
1422.8	0.80861
1423.0	0.81112
1423.2	0.81268
1423.4	0.81425
1423.6	0.81582
1423.8	0.81739
1424.0	0.81899
1424.2	0.82095
1424.4	0.82292
1424.6	0.8249
1424.8	0.82688
1425.0	0.82886
1425.2	0.83106
1425.4	0.83326
1425.6	0.83546
1425.8	0.83767
1426.0	0.83988
1426.2	0.84189
1426.4	0.84391
1426.6	0.84593
1426.8	0.84796
1427.0	0.84999
1427.2	0.85234
1427.4	0.85469
1427.6	0.85706
1427.8	0.85942
1428.0	0.86177
1428.2	0.86337
1428.4	0.86497
1428.6	0.86658
1428.8	0.86819
1429.0	0.8698
1429.2	0.87178
1429.4	0.87376
1429.6	0.87575
1429.8	0.87774
1430.0	0.8797
1430.2	0.88068
1430.4	0.88167
1430.6	0.88265
1430.8	0.88364
1431.0	0.88464
1431.2	0.88647
1431.4	0.88831
1431.6	0.89015
1431.8	0.892
1432.0	0.89383
1432.2	0.8952
1432.4	0.89656
1432.6	0.89792
1432.8	0.89929
1433.0	0.90065
1433.2	0.90174
1433.4	0.90283
1433.6	0.90392
1433.8	0.90501
1434.0	0.9061
1434.2	0.907
1434.4	0.90791
1434.6	0.90882
1434.8	0.90972
1435.0	0.91063
1435.2	0.91142
1435.4	0.91222
1435.6	0.91302
1435.8	0.91381
1436.0	0.91459
1436.2	0.9141
1436.4	0.91361
1436.6	0.91312
1436.8	0.91263
1437.0	0.91218
1437.2	0.91267
1437.4	0.91316
1437.6	0.91366
1437.8	0.91415
1438.0	0.91462
1438.2	0.9138
1438.4	0.91297
1438.6	0.91215
1438.8	0.91132
1439.0	0.91051
1439.2	0.90983
1439.4	0.90915
1439.6	0.90847
1439.8	0.90779
1440.0	0.9071
1440.2	0.90575
1440.4	0.90439
1440.6	0.90304
1440.8	0.90169
1441.0	0.90035
1441.2	0.89923
1441.4	0.8981
1441.6	0.89698
1441.8	0.89585
1442.0	0.89473
1442.2	0.89328
1442.4	0.89184
1442.6	0.8904
1442.8	0.88896
1443.0	0.88754
1443.2	0.88627
1443.4	0.885
1443.6	0.88373
1443.8	0.88247
1444.0	0.88119
1444.2	0.87875
1444.4	0.87632
1444.6	0.87389
1444.8	0.87147
1445.0	0.86909
1445.2	0.86769
1445.4	0.86629
1445.6	0.86489
1445.8	0.86349
1446.0	0.86209
1446.2	0.85996
1446.4	0.85784
1446.6	0.85572
1446.8	0.85361
1447.0	0.85151
1447.2	0.84961
1447.4	0.84771
1447.6	0.84581
1447.8	0.84392
1448.0	0.84204
1448.2	0.84038
1448.4	0.83873
1448.6	0.83708
1448.8	0.83544
1449.0	0.83376
1449.2	0.83117
1449.4	0.82858
1449.6	0.82601
1449.8	0.82344
1450.0	0.82091
1450.2	0.8204
1450.4	0.81988
1450.6	0.81937
1450.8	0.81886
1451.0	0.8183
1451.2	0.81645
1451.4	0.8146
1451.6	0.81276
1451.8	0.81092
1452.0	0.80908
1452.2	0.80694
1452.4	0.8048
1452.6	0.80267
1452.8	0.80054
1453.0	0.79846
1453.2	0.79713
1453.4	0.7958
1453.6	0.79448
1453.8	0.79316
1454.0	0.79185
1454.2	0.79118
1454.4	0.79051
1454.6	0.78985
1454.8	0.78918
1455.0	0.78852
1455.2	0.78782
1455.4	0.78712
1455.6	0.78642
1455.8	0.78572
1456.0	0.78501
1456.2	0.78344
1456.4	0.78187
1456.6	0.7803
1456.8	0.77874
1457.0	0.7772
1457.2	0.77605
1457.4	0.7749
1457.6	0.77375
1457.8	0.7726
1458.0	0.77149
1458.2	0.77162
1458.4	0.77176
1458.6	0.7719
1458.8	0.77203
1459.0	0.77218
1459.2	0.77255
1459.4	0.77292
1459.6	0.77329
1459.8	0.77367
1460.0	0.77403
1460.2	0.77416
1460.4	0.77429
1460.6	0.77442
1460.8	0.77455
1461.0	0.77464
1461.2	0.77395
1461.4	0.77327
1461.6	0.77258
1461.8	0.77189
1462.0	0.77122
1462.2	0.77152
1462.4	0.77183
1462.6	0.77213
1462.8	0.77243
1463.0	0.77278
1463.2	0.77422
1463.4	0.77566
1463.6	0.7771
1463.8	0.77854
1464.0	0.77999
1464.2	0.78122
1464.4	0.78245
1464.6	0.78369
1464.8	0.78493
1465.0	0.78614
1465.2	0.78669
1465.4	0.78725
1465.6	0.78781
1465.8	0.78837
1466.0	0.78893
1466.2	0.78951
1466.4	0.79009
1466.6	0.79067
1466.8	0.79125
1467.0	0.79189
1467.2	0.7936
1467.4	0.79532
1467.6	0.79704
1467.8	0.79876
1468.0	0.80048
1468.2	0.80186
1468.4	0.80324
1468.6	0.80462
1468.8	0.806
1469.0	0.8074
1469.2	0.80936
1469.4	0.81132
1469.6	0.81329
1469.8	0.81526
1470.0	0.81722
1470.2	0.81851
1470.4	0.8198
1470.6	0.8211
1470.8	0.8224
1471.0	0.82371
1471.2	0.82618
1471.4	0.82867
1471.6	0.83116
1471.8	0.83365
1472.0	0.83616
1472.2	0.83853
1472.4	0.84092
1472.6	0.84331
1472.8	0.84571
1473.0	0.84807
1473.2	0.84967
1473.4	0.85128
1473.6	0.85288
1473.8	0.85449
1474.0	0.8561
1474.2	0.85765
1474.4	0.8592
1474.6	0.86075
1474.8	0.86231
1475.0	0.86393
1475.2	0.86668
1475.4	0.86945
1475.6	0.87222
1475.8	0.875
1476.0	0.87775
1476.2	0.87939
1476.4	0.88103
1476.6	0.88268
1476.8	0.88432
1477.0	0.88597
1477.2	0.88764
1477.4	0.88932
1477.6	0.891
1477.8	0.89268
1478.0	0.89436
1478.2	0.89627
1478.4	0.89818
1478.6	0.9001
1478.8	0.90202
1479.0	0.90395
1479.2	0.9061
1479.4	0.90825
1479.6	0.91041
1479.8	0.91258
1480.0	0.91472
1480.2	0.91589
1480.4	0.91707
1480.6	0.91824
1480.8	0.91942
1481.0	0.92056
1481.2	0.92076
1481.4	0.92097
1481.6	0.92117
1481.8	0.92138
1482.0	0.92159
1482.2	0.9228
1482.4	0.92401
1482.6	0.92522
1482.8	0.92644
1483.0	0.92764
1483.2	0.92859
1483.4	0.92953
1483.6	0.93048
1483.8	0.93143
1484.0	0.93236
1484.2	0.93158
1484.4	0.93081
1484.6	0.93004
1484.8	0.92927
1485.0	0.92851
1485.2	0.92828
1485.4	0.92806
1485.6	0.92783
1485.8	0.9276
1486.0	0.92739
1486.2	0.92736
1486.4	0.92733
1486.6	0.9273
1486.8	0.92728
1487.0	0.92723
1487.2	0.92598
1487.4	0.92473
1487.6	0.92349
1487.8	0.92224
1488.0	0.92099
1488.2	0.91944
1488.4	0.91789
1488.6	0.91635
1488.8	0.9148
1489.0	0.91327
1489.2	0.91266
1489.4	0.91205
1489.6	0.91144
1489.8	0.91084
1490.0	0.9102
1490.2	0.90845
1490.4	0.90672
1490.6	0.90498
1490.8	0.90325
1491.0	0.90148
1491.2	0.89879
1491.4	0.8961
1491.6	0.89343
1491.8	0.89076
1492.0	0.88811
1492.2	0.88687
1492.4	0.88564
1492.6	0.8844
1492.8	0.88317
1493.0	0.88191
1493.2	0.87945
1493.4	0.877
1493.6	0.87455
1493.8	0.87211
1494.0	0.86965
1494.2	0.86638
1494.4	0.86312
1494.6	0.85987
1494.8	0.85663
1495.0	0.85353
1495.2	0.85277
1495.4	0.85201
1495.6	0.85125
1495.8	0.85049
1496.0	0.84969
1496.2	0.84656
1496.4	0.84344
1496.6	0.84033
1496.8	0.83723
1497.0	0.83414
1497.2	0.83104
1497.4	0.82795
1497.6	0.82487
1497.8	0.8218
1498.0	0.81887
1498.2	0.81842
1498.4	0.81798
1498.6	0.81754
1498.8	0.8171
1499.0	0.8166
1499.2	0.81255
1499.4	0.80852
1499.6	0.80451
1499.8	0.80053
1500.0	0.79656